Millis,INA260 Current (mA),INA260 Voltage (mV),INA260 Power (mW),PicoTemp Temp (C),MTK3339 Year,MTK3339 Month,MTK3339 Day,MTK3339 Hour,MTK3339 Minute,MTK3339 Second,MTK3339 Latitude,MTK3339 Longitude,MTK3339 Speed,MTK3339 Heading,MTK3339 Altitude,MTK3339 Satellites,ICM20948 AccX (g),ICM20948 AccY (g),ICM20948 AccZ (g),ICM20948 GyroX (deg/s),ICM20948 GyroY (deg/s),ICM20948 GyroZ (deg/s),ICM20948 MagX (uT),ICM20948 MagY (uT),ICM20948 MagZ (uT),ICM20948 Temp (C),PCF8523 Year,PCF8523 Month,PCF8523 Day,PCF8523 Hour,PCF8523 Minute,PCF8523 Second,TMP117 Temp (C),UV_Sensor_O UVA2 (nm),UV_Sensor_O UVB2 (nm),UV_Sensor_O UVC2 (nm),ENS160_O AQI,ENS160_O TVOC (ppb),ENS160_O eCO2 (ppm),BMP390_O Temp (C),BMP390_O Pressure (Pa),BMP390_O Altitude (m),TMP117_O Temp_O (C),SHTC3_O Temp (C),SHTC3_O Rel Hum (%),Ozone Conc (ppb),Analog_Temp_0 ADC_val
433,,,,,,,,,,,,,,,,,-3.7636849880218506,9.500192642211914,2.8203697204589844,-0.30170783400535583,0.13515660166740417,-0.10056927800178528,-5.699999809265137,25.649999618530273,26.399999618530273,209.4326171875,,,,,,,,,,,,,,,,,,,,,
947,,,,,,,,,,,,,,,,,-4.041412353515625,8.461109161376953,1.8291701078414917,0.11067941784858704,0.14367039501667023,-0.009578026831150055,-4.349999904632568,25.049999237060547,27.299999237060547,209.09716796875,,,,,,,,0.0,0.0,0.0,,,,,,,,11.670000076293945,56.529998779296875,,679
1477,938.75,3385.0,3170.0,16.37129020690918,,,,,,,,,,,,,-3.9695863723754883,8.33182144165039,1.2832920551300049,0.23040474951267242,0.03618365526199341,0.2756343185901642,-2.8499999046325684,26.549999237060547,21.899999618530273,209.6243133544922,2001,3,0,0,2,20,,0.0,0.0,0.0,,,,,,,,11.739999771118164,56.529998779296875,,672
2149,,,,,2020,8,2,0,0,2,0.0,0.0,0.0,0.0,0.0,0,-2.2697031497955322,9.667786598205566,0.5746083855628967,0.07715632766485214,0.6853610277175903,-0.05533970892429352,-14.25,24.899999618530273,26.399999618530273,209.6243133544922,2001,3,0,0,2,20,,0.0,0.0,0.0,,,,,,,,11.760000228881836,56.529998779296875,,668
3296,917.5,3393.75,3110.0,15.435001373291016,,,,,,,,,,,,,-1.9153614044189453,9.950302124023438,-0.8140285611152649,0.2985151410102844,-0.09631238132715225,0.2250836193561554,-16.350000381469727,23.700000762939453,25.649999618530273,209.6243133544922,,,,,,,,0.0,0.0,0.0,,,,,,,,11.729999542236328,56.54999923706055,,672
3829,,,,,,,,,,,,,,,,,-1.1252747774124146,9.476250648498535,-1.2689268589019775,0.06598196178674698,0.22348728775978088,0.2766985297203064,-21.149999618530273,20.549999237060547,22.799999237060547,209.4326171875,2001,3,0,0,2,20,,0.0,0.0,0.0,,,,,,,,11.789999961853027,56.58000183105469,,672
4462,907.5,3400.0,3080.0,15.435001373291016,,,,,,,,,,,,,-0.2825157940387726,9.888052940368652,-1.6424223184585571,-0.20539546012878418,0.3825889527797699,0.05800027400255203,-20.700000762939453,20.399999618530273,21.899999618530273,209.6243133544922,,,,,,,,0.0,0.0,0.0,,,,,,,,11.829999923706055,56.58000183105469,,669
4994,,,,,2020,8,2,0,0,5,0.0,0.0,0.0,0.0,0.0,0,-2.1547815799713135,9.050082206726074,-1.5418659448623657,-0.6603516936302185,0.8077468872070312,0.5778742432594299,-17.399999618530273,23.100000381469727,24.75,209.57638549804688,2001,3,0,0,2,20,,0.0,0.0,0.0,,,,,,,,11.84000015258789,56.619998931884766,,670
6342,901.25,3398.75,3060.0,17.307579040527344,,,,,,,,,,,,,-1.2545616626739502,10.074800491333008,-1.1252747774124146,-0.05055069550871849,0.5730852484703064,-0.23679010570049286,-21.0,21.149999618530273,24.0,209.81600952148438,,,,,,,,0.0,0.0,0.0,,,,,,,,11.859999656677246,56.630001068115234,,672
6875,,,,,,,,,,,,,,,,,0.07661445438861847,10.103530883789062,-3.423708438873291,0.2740379869937897,-0.06757830083370209,0.3847173750400543,-22.5,20.100000381469727,25.5,209.57638549804688,2001,3,0,0,2,20,,0.0,0.0,0.0,,,,,,,,11.859999656677246,56.630001068115234,,674
7407,670.0,3512.5,2360.0,16.839433670043945,,,,,,,,,,,,,-2.8155810832977295,8.815450668334961,-1.6328455209732056,0.25115713477134705,-0.16442278027534485,0.061725057661533356,-9.899999618530273,26.25,26.25,209.76808166503906,,,,,,,,0.0,0.0,0.0,,,,,,,,11.850000381469727,56.61000061035156,,671
8040,,,,,2020,8,8,17,1,43,0.0,0.0,0.0,0.0,0.0,0,-4.960785865783691,9.227252960205078,-1.7525556087493896,-0.30436837673187256,-0.051614921540021896,0.42569005489349365,-4.050000190734863,25.5,21.899999618530273,209.57638549804688,2001,3,0,0,2,20,,0.0,0.0,0.0,,,,,,,,11.880000114440918,56.529998779296875,,670
9589,933.75,3385.0,3160.0,17.307579040527344,,,,,,,,,,,,,-5.1331682205200195,8.058882713317871,-1.2306196689605713,0.04363323003053665,0.006385351065546274,0.1037619560956955,-1.9500000476837158,24.899999618530273,24.299999237060547,209.57638549804688,,,,,,,,0.0,0.0,0.0,,,,,,,,11.899999618530273,56.529998779296875,,670
10121,,,,,,,,,,,,,,,,,-5.2672438621521,8.35097599029541,-1.4460978507995605,-0.07502787560224533,-0.010642251931130886,0.03990844264626503,-2.8499999046325684,25.799999237060547,22.950000762939453,209.4805450439453,2001,3,0,0,2,20,,0.0,0.0,0.0,,,,,,,,11.949999809265137,56.5,,670
10652,908.75,3398.75,3080.0,15.435001373291016,,,,,,,,,,,,,-4.884171485900879,8.197746276855469,-1.5610195398330688,-0.09418392926454544,-0.04735802114009857,0.07236731052398682,-3.450000047683716,24.450000762939453,23.549999237060547,209.81600952148438,,,,,,,,0.0,0.0,0.0,,,,,,,,11.970000267028809,56.459999084472656,,672
11185,,,,,2025,12,6,17,1,46,0.0,0.0,0.0,0.0,0.0,0,-5.568912982940674,7.95832633972168,-0.8140285611152649,0.21124869585037231,0.2798911929130554,0.10642251372337341,-0.30000001192092896,25.5,24.450000762939453,209.6243133544922,2001,3,0,0,2,20,,0.0,0.0,0.0,,,,,,,,11.970000267028809,56.369998931884766,,671
12636,940.0,3388.75,3050.0,17.77568817138672,,,,,,,,,,,,,-4.4292731285095215,8.461109161376953,-0.8523358106613159,0.224019393324852,-0.014367039315402508,0.18304672837257385,-3.0,26.399999618530273,26.399999618530273,209.76808166503906,,,,,,,,0.0,0.0,0.0,,,,,,,,11.979999542236328,56.31999969482422,,668
13169,,,,,,,,,,,,,,,,,-4.448426723480225,8.039729118347168,-0.8427590131759644,-0.09737660735845566,-0.2735058665275574,-0.3629007637500763,-6.75,24.450000762939453,26.100000381469727,209.81600952148438,2001,3,0,0,2,20,,0.0,0.0,0.0,,,,,,,,11.989999771118164,56.27000045776367,,673
13700,907.5,3396.25,3080.0,16.839433670043945,,,,,,,,,,,,,-2.470816135406494,9.385271072387695,-2.188300371170044,-0.2782948911190033,0.07449576258659363,-0.28414812684059143,-10.649999618530273,24.75,22.950000762939453,209.4805450439453,,,,,,,,0.0,0.0,0.0,,,,,,,,11.989999771118164,56.220001220703125,,670
14232,,,,,2025,12,6,17,1,49,0.0,0.0,0.0,0.0,0.0,0,-4.644751071929932,9.30386734008789,-1.4077905416488647,-0.12983547151088715,0.001064225216396153,-0.08088111132383347,-5.699999809265137,25.200000762939453,26.100000381469727,209.6243133544922,2001,3,0,0,2,20,,0.0,0.0,0.0,,,,,,,,12.050000190734863,56.150001525878906,,670
15582,902.5,3395.0,3060.0,17.307579040527344,,,,,,,,,,,,,-4.357447147369385,8.394071578979492,-1.5849615335464478,0.11706477403640747,0.13568870723247528,0.2586067318916321,-5.849999904632568,25.799999237060547,25.950000762939453,209.6243133544922,,,,,,,,0.0,0.0,0.0,,,,,,,,12.039999961853027,56.150001525878906,,673
16114,,,,,,,,,,,,,,,,,-4.089296340942383,8.777143478393555,-1.8962076902389526,0.0047890134155750275,0.0,0.09631238132715225,-6.75,25.649999618530273,22.799999237060547,209.95977783203125,2001,3,0,0,2,20,,0.0,0.0,0.0,,,,,,,,12.069999694824219,56.18000030517578,,667
16645,695.0,3500.0,2430.0,17.307579040527344,,,,,,,,,,,,,-4.5394062995910645,8.403648376464844,-2.3989901542663574,-0.14260616898536682,-0.23146897554397583,-0.1920926421880722,-5.25,25.649999618530273,23.100000381469727,209.76808166503906,,,,,,,,0.0,0.0,0.0,,,,,,,,12.0600004196167,56.18000030517578,,672
17178,,,,,2025,12,6,17,1,52,0.0,0.0,0.0,0.0,0.0,0,-3.251325845718384,8.89685344696045,-2.164358377456665,-0.2985151410102844,-0.22029460966587067,-0.19422109425067902,-8.399999618530273,24.299999237060547,20.700000762939453,209.81600952148438,2001,3,0,0,2,20,,0.0,0.0,0.0,,,,,,,,12.119999885559082,56.15999984741211,,667
18527,917.5,3386.25,3110.0,19.180118560791016,,,,,,,,,,,,,-5.262455463409424,8.130708694458008,-1.5322890281677246,0.28893712162971497,-0.056403931230306625,-0.11972533166408539,-5.550000190734863,26.549999237060547,22.950000762939453,209.91184997558594,,,,,,,,0.0,0.0,0.0,,,,,,,,12.09000015258789,56.13999938964844,,669
19059,,,,,,,,,,,,,,,,,-5.17626428604126,7.967903137207031,-2.2697031497955322,0.21284502744674683,-0.017027603462338448,0.02766985446214676,-4.949999809265137,24.899999618530273,21.0,210.0076904296875,2001,3,0,0,2,20,,0.0,0.0,0.0,,,,,,,,12.100000381469727,56.08000183105469,,668
19590,903.75,3392.5,3070.0,18.71197509765625,,,,,,,,,,,,,-3.4955344200134277,9.509769439697266,-2.719813108444214,-0.1915605217218399,0.06278928369283676,0.09205547720193863,-7.949999809265137,24.149999618530273,18.75,209.91184997558594,,,,,,,,0.0,0.0,0.0,,,,,,,,12.119999885559082,56.040000915527344,,669
20123,,,,,2025,12,6,17,1,55,0.0,0.0,0.0,0.0,0.0,0,-4.553771495819092,7.915230751037598,-2.4660277366638184,0.33576303720474243,-0.04735802114009857,-0.39429542422294617,-3.5999999046325684,24.299999237060547,17.549999237060547,209.81600952148438,2001,3,0,0,2,20,,0.0,0.0,0.0,,,,,,,,12.130000114440918,55.88999938964844,,670
21572,921.25,3388.75,3120.0,16.37129020690918,,,,,,,,,,,,,-4.505887508392334,8.274360656738281,-2.8107926845550537,-0.05427548289299011,0.1415419578552246,0.06598196178674698,-4.050000190734863,24.75,15.600000381469727,210.0076904296875,,,,,,,,0.0,0.0,0.0,,,,,,,,12.140000343322754,55.83000183105469,,672
22105,,,,,,,,,,,,,,,,,-4.367023944854736,8.949525833129883,-2.3271639347076416,0.03990844264626503,0.034055206924676895,-0.025541404262185097,-3.5999999046325684,24.299999237060547,15.300000190734863,209.6243133544922,2001,3,0,0,2,20,,0.0,0.0,0.0,,,,,,,,12.149999618530273,55.77000045776367,,672
22636,940.0,3390.0,3190.0,17.307579040527344,,,,,,,,,,,,,-4.32871675491333,8.901641845703125,-3.026270866394043,-0.08141322433948517,0.20326699316501617,0.044165343046188354,-4.949999809265137,21.75,13.949999809265137,209.6243133544922,,,,,,,,0.0,0.0,0.0,,,,,,,,12.149999618530273,55.70000076293945,,670
23169,,,,,2025,12,6,17,1,58,0.0,0.0,0.0,0.0,0.0,0,-4.76924991607666,8.451532363891602,-3.1316158771514893,0.1213216707110405,-0.03937632963061333,-0.05374337360262871,-5.25,22.950000762939453,13.649999618530273,209.81600952148438,2001,3,0,0,2,20,,0.0,0.0,0.0,,,,,,,,12.15999984741211,55.61000061035156,,676
24518,923.75,3358.75,3120.0,16.839433670043945,,,,,,,,,,,,,-3.8115692138671875,7.752425193786621,-3.711012601852417,-0.12983547151088715,0.0521470308303833,0.03299098089337349,-4.349999904632568,23.850000381469727,12.300000190734863,209.91184997558594,,,,,,,,0.0,0.0,0.0,,,,,,,,12.15999984741211,55.540000915527344,,675
25050,,,,,,,,,,,,,,,,,-5.2049946784973145,8.370129585266113,-2.604891538619995,0.13409237563610077,-0.07822055369615555,-0.029266193509101868,-2.4000000953674316,24.149999618530273,14.25,210.0076904296875,2001,3,0,0,2,20,,0.0,0.0,0.0,,,,,,,,12.149999618530273,55.439998626708984,,670
25581,698.75,3492.5,2440.0,16.839433670043945,,,,,,,,,,,,,-3.825934410095215,7.738059997558594,-2.4612393379211426,-0.09311969578266144,0.04363323003053665,0.2091202437877655,-6.150000095367432,23.850000381469727,16.350000381469727,209.95977783203125,,,,,,,,0.0,0.0,0.0,,,,,,,,12.1899995803833,55.400001525878906,,667
26114,,,,,2025,12,6,17,2,1,41.37358093261719,-92.03581237792969,0.0,0.0,9298359.0,0,-4.333505153656006,7.814674377441406,-3.3423056602478027,-0.04735802114009857,-0.07609209418296814,-0.14686307311058044,-2.700000047683716,24.149999618530273,12.600000381469727,209.95977783203125,2001,3,0,0,2,20,,0.0,0.0,0.0,,,,,,,,12.180000305175781,55.369998931884766,,669
27564,970.0,3362.5,3250.0,17.307579040527344,,,,,,,,,,,,,-4.960785865783691,6.842628479003906,-2.829946517944336,-0.23040474951267242,0.156973198056221,-0.007981688715517521,0.6000000238418579,23.100000381469727,16.350000381469727,210.10354614257812,,,,,,,,0.0,0.0,0.0,,,,,,,,12.210000038146973,55.34000015258789,,672
28096,,,,,,,,,,,,,,,,,-5.315127849578857,7.632715225219727,-2.7964274883270264,0.025541404262185097,0.1575053185224533,0.12504646182060242,-5.699999809265137,22.200000762939453,14.399999618530273,209.95977783203125,2001,3,0,0,2,20,,0.0,0.0,0.0,,,,,,,,12.180000305175781,55.279998779296875,,672
28627,935.0,3378.75,3160.0,18.243831634521484,,,,,,,,,,,,,-5.578489780426025,8.255207061767578,-2.2409727573394775,0.14845940470695496,0.37567150592803955,0.20060645043849945,-3.0,22.5,12.899999618530273,210.15145874023438,,,,,,,,0.0,0.0,0.0,,,,,,,,12.239999771118164,55.310001373291016,,670
29160,,,,,2025,12,6,17,2,4,41.42483139038086,-90.75935363769531,0.0,0.0,9317316.0,0,-5.272032260894775,7.704541206359863,-1.886630892753601,-0.1553768664598465,-0.040972672402858734,0.15378053486347198,0.15000000596046448,24.899999618530273,15.449999809265137,210.10354614257812,2001,3,0,0,2,20,,0.0,0.0,0.0,,,,,,,,12.220000267028809,55.38999938964844,,674
30610,927.5,3380.0,3100.0,18.71197509765625,,,,,,,,,,,,,-5.7556610107421875,9.174580574035645,0.26336219906806946,-0.37194669246673584,-0.11759687960147858,-0.10535828769207001,-3.299999952316284,25.049999237060547,19.350000381469727,210.15145874023438,,,,,,,,0.0,0.0,0.0,,,,,,,,12.210000038146973,55.5099983215332,,671
31143,,,,,,,,,,,,,,,,,-4.395754337310791,9.05487060546875,-2.365471363067627,-0.26658838987350464,0.2628636062145233,-0.11280786246061325,-5.099999904632568,23.850000381469727,18.899999618530273,210.15145874023438,2001,3,0,0,2,20,,0.0,0.0,0.0,,,,,,,,12.229999542236328,55.560001373291016,,669
31674,940.0,3377.5,3170.0,17.307579040527344,,,,,,,,,,,,,-4.3191399574279785,8.887276649475098,-2.734178304672241,0.03299098089337349,0.1388813853263855,0.08513801544904709,-4.349999904632568,24.75,18.899999618530273,210.0076904296875,,,,,,,,0.0,0.0,0.0,,,,,,,,12.279999732971191,55.59000015258789,,678
32206,,,,,2025,12,6,17,2,7,41.55000686645508,-92.9621353149414,0.0,0.0,9363638.0,0,-4.371812343597412,8.389283180236816,-2.7437551021575928,0.018623940646648407,0.08567012846469879,-0.042569007724523544,-6.0,24.149999618530273,19.5,210.10354614257812,2001,3,0,0,2,20,,0.0,0.0,0.0,,,,,,,,12.279999732971191,55.560001373291016,,671
33557,918.75,3382.5,3110.0,16.37129020690918,,,,,,,,,,,,,-3.6152446269989014,8.250418663024902,-2.9927520751953125,-0.07555998861789703,0.21923038363456726,-0.011174364015460014,-6.599999904632568,23.850000381469727,19.350000381469727,210.15145874023438,,,,,,,,0.0,0.0,0.0,,,,,,,,12.279999732971191,55.540000915527344,,672
34089,,,,,,,,,,,,,,,,,-4.280832767486572,7.594407558441162,-3.0406360626220703,0.13462448120117188,-0.002128450432792306,-0.07236731052398682,-6.75,24.450000762939453,20.549999237060547,210.1993865966797,2001,3,0,0,2,20,,0.0,0.0,0.0,,,,,,,,12.270000457763672,55.599998474121094,,673
34620,703.75,3483.75,2460.0,15.903145790100098,,,,,,,,,,,,,-4.611232280731201,9.251194953918457,-3.1699230670928955,-0.012770702131092548,0.04576168209314346,0.021816615015268326,-5.550000190734863,23.850000381469727,19.350000381469727,210.15145874023438,,,,,,,,0.0,0.0,0.0,,,,,,,,12.380000114440918,55.79999923706055,,667
35153,,,,,2025,12,6,17,2,10,33.07377624511719,-111.97451782226562,62.0,0.0,346500.0,6,-4.6255974769592285,8.054094314575195,-3.3231520652770996,0.0691746324300766,-0.03618365526199341,-0.12877124547958374,-4.949999809265137,24.899999618530273,16.200000762939453,210.29522705078125,2001,3,0,0,2,20,,0.0,0.0,0.0,,,,,,,,12.4399995803833,56.689998626708984,,670
36402,948.75,3362.5,3190.0,19.648263931274414,,,,,,,,,,,,,-4.343081951141357,8.058882713317871,-3.3949780464172363,-0.10003716498613358,-0.012238589115440845,0.01915605366230011,-5.099999904632568,25.049999237060547,16.049999237060547,210.15145874023438,,,,,,,,0.0,0.0,0.0,,,,,,,,12.479999542236328,57.41999816894531,,672
36934,,,,,,,,,,,,,,,,,-3.9839515686035156,8.33182144165039,-2.7533318996429443,0.009045913815498352,0.08247745037078857,0.15324842929840088,-6.0,24.899999618530273,20.25,210.1993865966797,2001,3,0,0,2,20,,0.0,0.0,0.0,,,,,,,,12.5,58.15999984741211,,672
37465,930.0,3378.75,3150.0,17.307579040527344,,,,,,,,,,,,,-4.836287498474121,8.216899871826172,-2.5905263423919678,0.03139464184641838,0.007449576165527105,0.11600054800510406,-2.549999952316284,23.850000381469727,21.899999618530273,210.1993865966797,,,,,,,,0.0,0.0,0.0,,,,,,,,12.5,58.970001220703125,,678
37998,,,,,2025,12,6,17,2,13,33.073787689208984,-111.97453308105469,97.0,0.0,344556.0,6,-5.722142219543457,8.542511940002441,-1.2449848651885986,-0.0686425194144249,0.07183519750833511,0.22987262904644012,-2.0999999046325684,25.049999237060547,24.0,210.15145874023438,2001,3,0,0,2,20,,0.0,0.0,0.0,,,,,,,,12.5600004196167,61.040000915527344,,669
39448,930.0,3367.5,3120.0,14.498747825622559,,,,,,,,,,,,,-4.750096321105957,8.571242332458496,-1.920149803161621,-0.24956080317497253,0.044165343046188354,0.10216561704874039,-2.0999999046325684,25.049999237060547,25.5,209.95977783203125,,,,,,,,0.0,0.0,0.0,,,,,,,,12.569999694824219,61.709999084472656,,677
39980,,,,,,,,,,,,,,,,,-4.352658748626709,8.279149055480957,-1.8052281141281128,0.03511942923069,0.09258759021759033,0.3150106370449066,-3.299999952316284,26.25,25.200000762939453,210.4390106201172,2001,3,0,0,2,20,,0.0,0.0,0.0,,,,,,,,12.569999694824219,62.34000015258789,,672
40511,926.25,3367.5,3200.0,17.307579040527344,,,,,,,,,,,,,-4.146757125854492,8.700529098510742,-1.9584569931030273,0.042569007724523544,-0.09790871292352676,-0.04363323003053665,-5.25,26.100000381469727,24.299999237060547,210.15145874023438,,,,,,,,0.0,0.0,0.0,,,,,,,,12.609999656677246,62.9900016784668,,676
41044,,,,,2025,12,6,17,2,16,33.073787689208984,-111.97453308105469,92.0,0.0,345710.0,6,-4.529829502105713,8.403648376464844,-1.4221558570861816,0.1564411073923111,-0.277762770652771,-0.2990472912788391,-6.449999809265137,25.649999618530273,25.350000381469727,210.1993865966797,2001,3,0,0,2,20,,0.0,0.0,0.0,,,,,,,,12.529999732971191,64.05999755859375,,677
42395,915.0,3370.0,3100.0,16.839433670043945,,,,,,,,,,,,,-3.9456443786621094,8.987833023071289,-2.1499931812286377,0.1564411073923111,-0.08034899830818176,-0.12345011532306671,-6.0,25.200000762939453,24.600000381469727,210.29522705078125,,,,,,,,0.0,0.0,0.0,,,,,,,,12.5600004196167,64.06999969482422,,674
42927,,,,,,,,,,,,,,,,,-3.8307228088378906,8.743624687194824,-1.460463047027588,-0.19422109425067902,0.3134143054485321,0.5283877849578857,-9.600000381469727,24.75,25.5,210.1993865966797,2001,3,0,0,2,20,,0.0,0.0,0.0,,,,,,,,12.569999694824219,63.91999816894531,,673
43458,705.0,3476.25,2440.0,18.243831634521484,,,,,,,,,,,,,-4.788403511047363,8.370129585266113,-0.646434485912323,-0.3001115024089813,0.22242306172847748,-0.05959660932421684,-6.449999809265137,25.649999618530273,32.25,210.4390106201172,,,,,,,,0.0,0.0,0.0,,,,,,,,12.550000190734863,63.720001220703125,,676
43991,,,,,2025,12,6,17,2,19,33.07379150390625,-111.97456359863281,158.0,0.0,340320.0,8,-4.6734819412231445,9.710882186889648,0.8954314589500427,0.09205547720193863,0.24051488935947418,0.14420251548290253,1.649999976158142,24.149999618530273,40.650001525878906,210.4390106201172,2001,3,0,0,2,20,,0.0,0.0,0.0,,,,,,,,12.609999656677246,63.150001525878906,,671
45441,957.5,3355.0,3210.0,16.37129020690918,,,,,,,,,,,,,-5.980715751647949,8.058882713317871,-0.5889736413955688,0.27031320333480835,-0.05906449630856514,-0.05427548289299011,-1.2000000476837158,24.899999618530273,39.900001525878906,210.1993865966797,,,,,,,,0.0,0.0,0.0,,,,,,,,12.630000114440918,62.97999954223633,,671
45973,,,,,,,,,,,,,,,,,-5.353435039520264,7.206547260284424,-0.8427590131759644,0.4719838500022888,0.10110139101743698,-0.18517518043518066,-0.8999999761581421,25.649999618530273,37.349998474121094,210.53485107421875,2001,3,0,0,2,20,,0.0,0.0,0.0,,,,,,,,12.680000305175781,62.970001220703125,,672
46504,930.0,3370.0,3140.0,18.71197509765625,,,,,,,,,,,,,-3.3949780464172363,8.403648376464844,-1.1204863786697388,0.02766985446214676,-0.5416906476020813,-0.07662421464920044,-3.5999999046325684,24.75,35.099998474121094,210.1993865966797,,,,,,,,0.0,0.0,0.0,,,,,,,,12.710000038146973,63.08000183105469,,673
47037,,,,,2025,12,6,17,2,22,33.07379150390625,-111.97457885742188,44.0,2486776.0,337723.0,8,-2.6192567348480225,9.284713745117188,-1.3407529592514038,-0.21178081631660461,0.10695462673902512,-0.21656982600688934,-5.699999809265137,25.200000762939453,29.700000762939453,210.4390106201172,2001,3,0,0,2,20,,0.0,0.0,0.0,,,,,,,,12.65999984741211,63.619998931884766,,675
48387,918.75,3371.25,3100.0,16.839433670043945,,,,,,,,,,,,,-4.3191399574279785,8.700529098510742,-1.5610195398330688,0.15431265532970428,0.3346988260746002,0.08407378941774368,-2.700000047683716,24.899999618530273,31.200000762939453,210.34315490722656,,,,,,,,0.0,0.0,0.0,,,,,,,,12.680000305175781,63.70000076293945,,670
48920,,,,,,,,,,,,,,,,,-5.841852188110352,8.346187591552734,-1.5897499322891235,0.09418392926454544,0.09578026086091995,0.17134025692939758,-1.0499999523162842,26.25,31.049999237060547,210.1993865966797,2001,3,0,0,2,20,,0.0,0.0,0.0,,,,,,,,12.680000305175781,63.68000030517578,,670
49451,926.25,3370.0,3120.0,17.307579040527344,,,,,,,,,,,,,-4.927267074584961,8.80587387084961,-1.0247182846069336,0.03618365526199341,0.08939491212368011,0.00691746361553669,-2.8499999046325684,25.5,31.799999237060547,210.6306915283203,,,,,,,,0.0,0.0,0.0,,,,,,,,12.65999984741211,63.7400016784668,,674
49983,,,,,2025,12,6,17,2,25,33.073795318603516,-111.97457885742188,100.0,2486776.0,337239.0,10,-4.726154327392578,8.135497093200684,-0.6272808313369751,0.010642251931130886,0.09311969578266144,0.016495490446686745,-1.9500000476837158,24.899999618530273,35.54999923706055,210.53485107421875,2001,3,0,0,2,20,,0.0,0.0,0.0,,,,,,,,12.65999984741211,63.810001373291016,,676
51434,926.25,3370.0,3120.0,16.37129020690918,,,,,,,,,,,,,-3.0358476638793945,8.78193187713623,-1.3886369466781616,-0.028201965615153313,0.0872664600610733,0.021816615015268326,-3.450000047683716,24.899999618530273,34.04999923706055,210.53485107421875,,,,,,,,0.0,0.0,0.0,,,,,,,,12.649999618530273,63.689998626708984,,673
51966,,,,,,,,,,,,,,,,,-5.324704647064209,8.834604263305664,-0.6943184733390808,-0.01383492723107338,-0.11919321864843369,-0.14633096754550934,-4.5,26.850000381469727,33.0,210.6306915283203,2001,3,0,0,2,20,,0.0,0.0,0.0,,,,,,,,12.699999809265137,63.529998779296875,,672
52498,717.5,3472.5,2500.0,16.839433670043945,,,,,,,,,,,,,-3.643975019454956,8.710105895996094,-1.015141487121582,-0.09684448689222336,0.18357884883880615,0.03299098089337349,-5.099999904632568,27.0,33.599998474121094,210.53485107421875,,,,,,,,0.0,0.0,0.0,,,,,,,,12.6899995803833,63.25,,672
53030,,,,,2025,12,6,17,2,28,33.073795318603516,-111.9745864868164,32.0,2486776.0,336347.0,10,-4.7836151123046875,8.868123054504395,-1.7094600200653076,-0.025541404262185097,-0.09737660735845566,-0.029266193509101868,-4.050000190734863,25.049999237060547,28.799999237060547,210.6306915283203,2001,3,0,0,2,20,,0.0,0.0,0.0,,,,,,,,12.6899995803833,62.29999923706055,,676
54379,966.25,3347.5,3240.0,19.648263931274414,,,,,,,,,,,,,-4.7405195236206055,8.513781547546387,-1.5705963373184204,0.13089969754219055,0.13356025516986847,-0.013302814215421677,-2.700000047683716,25.649999618530273,31.5,210.15145874023438,,,,,,,,0.0,0.0,0.0,,,,,,,,12.720000267028809,61.90999984741211,,671
54912,,,,,,,,,,,,,,,,,-3.9025487899780273,8.556877136230469,-1.8722656965255737,0.09737660735845566,-0.14207406342029572,0.10855096578598022,-4.800000190734863,25.799999237060547,29.850000381469727,210.4390106201172,2001,3,0,0,2,20,,0.0,0.0,0.0,,,,,,,,12.720000267028809,61.54999923706055,,673
55443,937.5,3353.75,3150.0,14.96689224243164,,,,,,,,,,,,,-4.242525577545166,8.552088737487793,-1.8339585065841675,-0.003192675532773137,-0.2793591022491455,-0.4522956907749176,-1.9500000476837158,25.649999618530273,28.950000762939453,210.67861938476562,,,,,,,,0.0,0.0,0.0,,,,,,,,12.729999542236328,61.20000076293945,,669
55975,,,,,2025,12,6,17,2,31,33.073795318603516,-111.97459411621094,50.0,27343244.0,335819.0,10,-3.9456443786621094,9.390059471130371,-1.5897499322891235,0.027137741446495056,0.0345873162150383,-0.05587182193994522,-4.800000190734863,24.75,28.799999237060547,210.53485107421875,2001,3,0,0,2,20,,0.0,0.0,0.0,,,,,,,,12.720000267028809,60.29999923706055,,671
57426,930.0,3353.75,3120.0,18.71197509765625,,,,,,,,,,,,,-5.3582234382629395,7.603984832763672,-1.800439715385437,0.04150478169322014,-0.5762779712677002,-0.789122998714447,-2.0999999046325684,25.5,28.049999237060547,210.72654724121094,,,,,,,,0.0,0.0,0.0,,,,,,,,12.760000228881836,59.970001220703125,,672
57958,,,,,,,,,,,,,,,,,-6.411672115325928,7.359776020050049,-0.6703764796257019,0.5906449556350708,-0.14739517867565155,-0.2735058665275574,-1.7999999523162842,26.25,30.299999237060547,210.6306915283203,2001,3,0,0,2,20,,0.0,0.0,0.0,,,,,,,,12.739999771118164,59.65999984741211,,675
58489,931.25,3362.5,3140.0,19.648263931274414,,,,,,,,,,,,,-7.42681360244751,7.915230751037598,-0.2777273952960968,0.16176222264766693,-0.1218537837266922,0.05055069550871849,-1.2000000476837158,26.399999618530273,27.600000381469727,210.6306915283203,,,,,,,,0.0,0.0,0.0,,,,,,,,12.729999542236328,59.41999816894531,,673
59022,,,,,2025,12,6,17,2,34,33.07380676269531,-111.97460174560547,273.0,32794866.0,336110.0,10,-3.643975019454956,8.111555099487305,-1.3072341680526733,0.21231292188167572,0.47996553778648376,0.015431264415383339,-5.25,26.399999618530273,29.399999618530273,210.53485107421875,2001,3,0,0,2,20,,0.0,0.0,0.0,,,,,,,,12.75,59.0,,670
60371,930.0,3357.5,3120.0,17.307579040527344,,,,,,,,,,,,,-4.975151062011719,9.030928611755371,-0.37828385829925537,0.17666137218475342,-0.08833068609237671,-0.05321125686168671,-6.150000095367432,25.5,31.799999237060547,210.48692321777344,,,,,,,,0.0,0.0,0.0,,,,,,,,12.739999771118164,58.779998779296875,,671
60904,,,,,,,,,,,,,,,,,-3.265691041946411,7.771578788757324,-0.9720458984375,0.26765263080596924,0.4687911868095398,0.21869827806949615,-3.299999952316284,26.25,35.099998474121094,210.4390106201172,2001,3,0,0,2,20,,0.0,0.0,0.0,,,,,,,,12.729999542236328,58.58000183105469,,674
61435,715.0,3470.0,2480.0,17.77568817138672,,,,,,,,,,,,,-5.1331682205200195,8.580819129943848,-2.0925323963165283,0.6305533647537231,-0.01915605366230011,-0.23945066332817078,-2.8499999046325684,26.25,32.849998474121094,210.8223876953125,,,,,,,,0.0,0.0,0.0,,,,,,,,12.770000457763672,58.36000061035156,,671
61967,,,,,2025,12,6,17,2,37,33.07380676269531,-111.97460174560547,220.0,34396352.0,336253.0,10,-5.458779811859131,7.015010833740234,-2.676717519760132,-0.009578026831150055,-0.11546842753887177,-0.13622082769870758,-6.900000095367432,26.549999237060547,29.549999237060547,210.53485107421875,2001,3,0,0,2,20,,0.0,0.0,0.0,,,,,,,,12.770000457763672,57.79999923706055,,671
63418,975.0,3335.0,3250.0,18.243831634521484,,,,,,,,,,,,,-3.3710360527038574,9.346963882446289,-1.766920804977417,-0.30596473813056946,0.5065711736679077,-0.032458867877721786,-3.75,25.200000762939453,31.950000762939453,210.72654724121094,,,,,,,,0.0,0.0,0.0,,,,,,,,12.75,57.56999969482422,,674
63951,,,,,,,,,,,,,,,,,-3.931279182434082,8.370129585266113,-1.6903064250946045,-0.10589040815830231,-0.10322984308004379,-0.06438562273979187,-5.099999904632568,25.049999237060547,30.600000381469727,210.72654724121094,2001,3,0,0,2,20,,0.0,0.0,0.0,,,,,,,,12.75,57.45000076293945,,670
64482,973.75,3358.75,3160.0,17.77568817138672,,,,,,,,,,,,,-3.4380736351013184,8.518569946289062,-2.3511061668395996,-0.2245515137910843,0.3288455605506897,-0.3102216422557831,-4.800000190734863,25.5,30.600000381469727,210.72654724121094,,,,,,,,0.0,0.0,0.0,,,,,,,,12.800000190734863,57.29999923706055,,671
65014,,,,,2025,12,6,17,2,40,33.07381057739258,-111.97460174560547,55.0,34396352.0,336059.0,11,-3.5721490383148193,9.2033109664917,-1.4508862495422363,-0.10535828769207001,0.09578026086091995,0.23838643729686737,-3.5999999046325684,24.299999237060547,27.299999237060547,210.67861938476562,2001,3,0,0,2,20,,0.0,0.0,0.0,,,,,,,,12.739999771118164,56.9900016784668,,677
66464,980.0,3346.25,3280.0,16.37129020690918,,,,,,,,,,,,,-3.3039982318878174,10.08437728881836,-2.1356279850006104,-0.30596473813056946,-0.7625173330307007,0.18357884883880615,-13.649999618530273,23.100000381469727,25.5,210.72654724121094,,,,,,,,0.0,0.0,0.0,,,,,,,,12.720000267028809,56.83000183105469,,668
66997,,,,,,,,,,,,,,,,,-4.113238334655762,8.40843677520752,-1.9105730056762695,-0.44537824392318726,0.09471604228019714,-0.5299841165542603,-6.900000095367432,25.799999237060547,28.5,211.06199645996094,2001,3,0,0,2,20,,0.0,0.0,0.0,,,,,,,,12.760000228881836,56.68000030517578,,664
67528,945.0,3350.0,3160.0,18.243831634521484,,,,,,,,,,,,,-5.2911858558654785,9.059659004211426,-2.126051187515259,-0.11121153086423874,-0.5858559608459473,-0.13249602913856506,-7.949999809265137,24.149999618530273,24.899999618530273,210.72654724121094,,,,,,,,0.0,0.0,0.0,,,,,,,,12.75,56.529998779296875,,671
68061,,,,,2025,12,6,17,2,43,33.07381820678711,-111.974609375,574.0,29248390.0,336384.0,12,-3.19865345954895,10.44350814819336,-0.5171475410461426,-0.28255176544189453,0.4906077980995178,-0.13089969754219055,-12.300000190734863,22.950000762939453,28.649999618530273,210.67861938476562,2001,3,0,0,2,20,,0.0,0.0,0.0,,,,,,,,12.760000228881836,56.16999816894531,,675
69411,938.75,3365.0,3160.0,19.180118560791016,,,,,,,,,,,,,-2.9496564865112305,9.744400978088379,-0.019153613597154617,0.46400219202041626,-0.32086390256881714,-0.44378191232681274,-12.0,24.450000762939453,31.5,210.48692321777344,,,,,,,,0.0,0.0,0.0,,,,,,,,12.760000228881836,56.029998779296875,,672
69944,,,,,,,,,,,,,,,,,-4.280832767486572,8.619126319885254,-0.8906430602073669,0.07715632766485214,-0.0345873162150383,-0.34001994132995605,-6.599999904632568,25.049999237060547,32.400001525878906,210.8703155517578,2001,3,0,0,2,20,,0.0,0.0,0.0,,,,,,,,12.760000228881836,55.91999816894531,,676
70475,722.5,3481.25,2520.0,17.77568817138672,,,,,,,,,,,,,-4.6255974769592285,8.834604263305664,-0.4836287498474121,0.3341667056083679,-0.14313828945159912,0.33523091673851013,-6.449999809265137,26.850000381469727,34.79999923706055,210.72654724121094,,,,,,,,0.0,0.0,0.0,,,,,,,,12.770000457763672,55.880001068115234,,672
71008,,,,,2025,12,6,17,2,46,33.073822021484375,-111.97461700439453,25.0,29248390.0,336123.0,12,-3.3901896476745605,9.121908187866211,-0.4165911078453064,0.13622082769870758,-0.3857816159725189,-0.07822055369615555,-12.149999618530273,25.5,27.75,210.72654724121094,2001,3,0,0,2,20,,0.0,0.0,0.0,,,,,,,,12.880000114440918,55.959999084472656,,674
72459,963.75,3356.25,3240.0,16.839433670043945,,,,,,,,,,,,,-4.108449935913086,10.070012092590332,0.6799532771110535,0.14420251548290253,0.2245515137910843,-0.2277441769838333,-10.350000381469727,23.850000381469727,29.850000381469727,211.0140838623047,,,,,,,,0.0,0.0,0.0,,,,,,,,12.890000343322754,56.150001525878906,,673
72992,,,,,,,,,,,,,,,,,-4.031835556030273,9.150638580322266,0.05267243832349777,0.19741377234458923,-0.06438562273979187,-0.06757830083370209,-9.300000190734863,25.200000762939453,29.399999618530273,210.96615600585938,2001,3,0,0,2,20,,0.0,0.0,0.0,,,,,,,,12.949999809265137,56.68000030517578,,669
73523,981.25,3341.25,3280.0,18.243831634521484,,,,,,,,,,,,,-3.1316158771514893,9.792284965515137,-0.8667010068893433,-0.07289942353963852,-0.0686425194144249,-0.003192675532773137,-10.5,24.149999618530273,27.149999618530273,211.0140838623047,,,,,,,,0.0,0.0,0.0,,,,,,,,12.920000076293945,57.47999954223633,,675
74055,,,,,2025,12,6,17,2,49,33.07381820678711,-111.97461700439453,44.0,29248390.0,335863.0,13,-4.079719543457031,9.476250648498535,-0.828393816947937,0.1564411073923111,0.17719349265098572,-0.1378171592950821,-12.149999618530273,24.75,25.5,210.8703155517578,2001,3,0,0,2,20,,0.0,0.0,0.0,,,,,,,,12.930000305175781,59.93000030517578,,671
75405,972.5,3333.75,3240.0,17.307579040527344,,,,,,,,,,,,,-3.021482467651367,9.47146224975586,-1.3934253454208374,0.16761545836925507,0.08034899830818176,0.021816615015268326,-13.649999618530273,25.5,28.5,210.8703155517578,,,,,,,,0.0,0.0,0.0,,,,,,,,12.960000038146973,60.91999816894531,,672
75938,,,,,,,,,,,,,,,,,-2.47560453414917,9.988609313964844,-0.8427590131759644,0.046293795108795166,-0.03831210732460022,0.02075239084661007,-15.899999618530273,25.049999237060547,31.049999237060547,210.96615600585938,2001,3,0,0,2,20,,0.0,0.0,0.0,,,,,,,,12.930000305175781,61.900001525878906,,672
76469,940.0,3355.0,3150.0,17.307579040527344,,,,,,,,,,,,,-1.9728221893310547,9.131484985351562,-0.15322890877723694,-0.012770702131092548,-0.12770701944828033,-0.14260616898536682,-11.850000381469727,24.299999237060547,28.799999237060547,210.72654724121094,,,,,,,,0.0,0.0,0.0,,,,,,,,13.0,62.81999969482422,,673
77001,,,,,2025,12,6,17,2,52,33.07381820678711,-111.97461700439453,205.0,31210246.0,335800.0,13,-2.9065608978271484,9.639056205749512,-0.6272808313369751,-0.7603888511657715,-0.16655124723911285,0.2096523642539978,-10.050000190734863,24.450000762939453,28.200000762939453,210.96615600585938,2001,3,0,0,2,20,,0.0,0.0,0.0,,,,,,,,13.039999961853027,65.16999816894531,,677
78453,962.5,3336.25,3210.0,20.11637306213379,,,,,,,,,,,,,-3.141192674636841,9.524134635925293,-0.727837324142456,0.06598196178674698,0.19368897378444672,-0.03618365526199341,-9.600000381469727,24.75,28.799999237060547,210.96615600585938,,,,,,,,0.0,0.0,0.0,,,,,,,,13.039999961853027,65.95999908447266,,670
78985,,,,,,,,,,,,,,,,,-3.514688014984131,8.825027465820312,-0.1628057211637497,0.012238589115440845,0.012238589115440845,0.13356025516986847,-9.899999618530273,23.850000381469727,28.049999237060547,210.6306915283203,2001,3,0,0,2,20,,0.0,0.0,0.0,,,,,,,,13.010000228881836,66.68000030517578,,675
79516,715.0,3458.75,2470.0,18.243831634521484,,,,,,,,,,,,,-2.786850690841675,9.02135181427002,-1.1013327836990356,-0.013302814215421677,0.06385350972414017,0.009045913815498352,-12.449999809265137,25.049999237060547,25.200000762939453,211.0140838623047,,,,,,,,0.0,0.0,0.0,,,,,,,,13.050000190734863,67.31999969482422,,669
80049,,,,,2025,12,6,17,2,55,33.07381820678711,-111.97461700439453,38.0,31210246.0,335817.0,13,-3.2992098331451416,9.102754592895508,-1.8387469053268433,0.0877985805273056,-0.03831210732460022,0.0005321126081980765,-10.350000381469727,25.049999237060547,24.0,211.06199645996094,2001,3,0,0,2,20,,0.0,0.0,0.0,,,,,,,,13.119999885559082,68.7300033569336,,670
81400,933.75,3352.5,3140.0,15.903145790100098,,,,,,,,,,,,,-3.6774938106536865,7.819462776184082,-2.073378562927246,-0.14739517867565155,-0.15111997723579407,-0.14207406342029572,-11.100000381469727,23.549999237060547,24.0,211.0140838623047,,,,,,,,0.0,0.0,0.0,,,,,,,,13.109999656677246,69.20999908447266,,670
81933,,,,,,,,,,,,,,,,,-3.0310592651367188,8.892065048217773,-2.2218191623687744,-0.1750650405883789,0.10269773006439209,-0.05800027400255203,-12.149999618530273,22.799999237060547,23.700000762939453,211.15785217285156,2001,3,0,0,2,20,,0.0,0.0,0.0,,,,,,,,13.100000381469727,69.69000244140625,,674
82464,962.5,3337.5,3210.0,17.307579040527344,,,,,,,,,,,,,-2.801215887069702,10.002974510192871,-1.9488801956176758,0.14739517867565155,0.17134025692939758,-0.08354167640209198,-10.649999618530273,24.75,24.450000762939453,211.15785217285156,,,,,,,,0.0,0.0,0.0,,,,,,,,13.0600004196167,70.12000274658203,,674
82996,,,,,2025,12,6,17,2,58,33.07381820678711,-111.97461700439453,75.0,31210246.0,335700.0,13,-3.2848446369171143,9.394847869873047,-0.8810662031173706,-0.10642251372337341,0.09844082593917847,0.009578026831150055,-11.25,24.899999618530273,28.200000762939453,210.6306915283203,2001,3,0,0,2,20,,0.0,0.0,0.0,,,,,,,,12.960000038146973,71.2300033569336,,671
84448,982.5,3335.0,3280.0,17.307579040527344,,,,,,,,,,,,,-3.4380736351013184,9.30386734008789,-0.3926490843296051,0.3671576976776123,-0.2766985297203064,-0.1740008145570755,-11.550000190734863,24.149999618530273,28.649999618530273,211.2057647705078,,,,,,,,0.0,0.0,0.0,,,,,,,,12.930000305175781,71.58999633789062,,672
84980,,,,,,,,,,,,,,,,,-3.1220390796661377,9.265560150146484,-1.359906554222107,-0.035651542246341705,-0.19794589281082153,-0.17932192981243134,-10.649999618530273,23.100000381469727,27.299999237060547,211.15785217285156,2001,3,0,0,2,20,,0.0,0.0,0.0,,,,,,,,12.960000038146973,71.81999969482422,,671
85512,963.75,3346.25,3230.0,19.648263931274414,,,,,,,,,,,,,-3.840299606323242,8.844181060791016,0.11971008777618408,0.03937632963061333,-0.33735939860343933,-0.09365181624889374,-11.100000381469727,25.049999237060547,28.799999237060547,211.25369262695312,,,,,,,,0.0,0.0,0.0,,,,,,,,12.880000114440918,71.7699966430664,,672
86044,,,,,2025,12,6,17,3,1,33.07381820678711,-111.97461700439453,70.0,31210246.0,335667.0,14,-3.2082302570343018,9.102754592895508,0.3256114423274994,-0.07662421464920044,-0.023945065215229988,0.13302814960479736,-7.650000095367432,25.799999237060547,31.350000381469727,211.25369262695312,2001,3,0,0,2,20,,0.0,0.0,0.0,,,,,,,,12.920000076293945,70.91999816894531,,670
87395,971.25,3336.25,3240.0,17.307579040527344,,,,,,,,,,,,,-3.00711727142334,7.910442352294922,-0.5889736413955688,-0.2926619350910187,0.36662557721138,0.4863508939743042,-10.649999618530273,25.5,30.600000381469727,211.0140838623047,,,,,,,,0.0,0.0,0.0,,,,,,,,12.880000114440918,70.41999816894531,,672
87928,,,,,,,,,,,,,,,,,-4.462791919708252,9.44752025604248,0.17717093229293823,0.17878982424736023,-0.30756106972694397,0.2277441769838333,-10.649999618530273,23.850000381469727,29.25,211.15785217285156,2001,3,0,0,2,20,,0.0,0.0,0.0,,,,,,,,12.880000114440918,69.9000015258789,,673
88459,712.5,3461.25,2470.0,15.903145790100098,,,,,,,,,,,,,-2.7676970958709717,9.399636268615723,-0.608127236366272,0.11600054800510406,-0.04895435646176338,-0.04895435646176338,-11.100000381469727,24.75,29.549999237060547,211.25369262695312,,,,,,,,0.0,0.0,0.0,,,,,,,,12.90999984741211,69.36000061035156,,673
88991,,,,,2025,12,6,17,3,4,33.07381820678711,-111.97461700439453,74.0,31210246.0,335571.0,15,-4.525041103363037,8.518569946289062,-0.28730419278144836,0.15378053486347198,-0.32192811369895935,-0.07822055369615555,-7.199999809265137,25.649999618530273,34.79999923706055,211.3974609375,2001,3,0,0,2,20,,0.0,0.0,0.0,,,,,,,,12.880000114440918,67.80000305175781,,673
90443,962.5,3335.0,3210.0,20.11637306213379,,,,,,,,,,,,,-4.5394062995910645,9.346963882446289,-1.0534487962722778,0.06278928369283676,0.2596709430217743,0.2575424909591675,-5.550000190734863,27.0,29.850000381469727,211.25369262695312,,,,,,,,0.0,0.0,0.0,,,,,,,,12.930000305175781,67.18000030517578,,672
90975,,,,,,,,,,,,,,,,,-3.0597896575927734,8.89685344696045,-0.5793967843055725,-0.30170783400535583,0.1931568682193756,0.13356025516986847,-5.699999809265137,24.149999618530273,32.25,211.49330139160156,2001,3,0,0,2,20,,0.0,0.0,0.0,,,,,,,,12.949999809265137,66.56999969482422,,675
91506,973.75,3350.0,3260.0,17.77568817138672,,,,,,,,,,,,,-3.821146011352539,9.102754592895508,-0.2585737705230713,-0.2256157249212265,0.05693604424595833,0.16282644867897034,-6.0,26.399999618530273,33.0,211.2057647705078,,,,,,,,0.0,0.0,0.0,,,,,,,,12.890000343322754,65.9800033569336,,671
92039,,,,,2025,12,6,17,3,7,33.07381820678711,-111.97461700439453,64.0,31210246.0,335679.0,15,-3.533841609954834,9.801861763000488,-0.22026655077934265,-0.11706477403640747,0.16655124723911285,-0.02447717823088169,-6.449999809265137,24.899999618530273,28.950000762939453,211.3974609375,2001,3,0,0,2,20,,0.0,0.0,0.0,,,,,,,,12.930000305175781,64.44999694824219,,672
93387,966.25,3347.5,3240.0,18.71197509765625,,,,,,,,,,,,,-3.648763418197632,8.643068313598633,-1.1061211824417114,-0.10748674720525742,0.05321125686168671,-0.021284503862261772,-7.349999904632568,24.75,28.5,211.25369262695312,,,,,,,,0.0,0.0,0.0,,,,,,,,12.960000038146973,63.900001525878906,,674
93920,,,,,,,,,,,,,,,,,-4.256890773773193,8.848969459533691,-0.4884171485900879,-0.08939491212368011,-0.05693604424595833,0.07822055369615555,-8.699999809265137,26.850000381469727,28.200000762939453,211.3974609375,2001,3,0,0,2,20,,0.0,0.0,0.0,,,,,,,,12.989999771118164,63.59000015258789,,672
94451,983.75,3326.25,3280.0,17.307579040527344,,,,,,,,,,,,,-3.509899616241455,9.366117477416992,-0.7134721279144287,0.032458867877721786,0.11280786246061325,0.1383492648601532,-8.850000381469727,25.799999237060547,28.049999237060547,211.25369262695312,,,,,,,,0.0,0.0,0.0,,,,,,,,12.949999809265137,63.470001220703125,,673
94983,,,,,2025,12,6,17,3,10,33.07381820678711,-111.97461700439453,44.0,31210246.0,335735.0,16,-3.155557870864868,9.299078941345215,-0.6943184733390808,0.16335856914520264,-0.04310112074017525,0.04150478169322014,-12.449999809265137,25.799999237060547,29.25,211.3974609375,2001,3,0,0,2,20,,0.0,0.0,0.0,,,,,,,,12.949999809265137,63.2400016784668,,675
96435,941.25,3342.5,3150.0,18.71197509765625,,,,,,,,,,,,,-2.853888511657715,9.5624418258667,-0.9959878921508789,-0.22348728775978088,0.04044055566191673,-0.05800027400255203,-14.550000190734863,23.25,25.350000381469727,211.25369262695312,,,,,,,,0.0,0.0,0.0,,,,,,,,12.930000305175781,63.119998931884766,,669
96968,,,,,,,,,,,,,,,,,-2.8634653091430664,9.500192642211914,-0.3256114423274994,-0.03671576827764511,-0.01915605366230011,0.0026605629827827215,-13.050000190734863,24.899999618530273,28.649999618530273,211.15785217285156,2001,3,0,0,2,20,,0.0,0.0,0.0,,,,,,,,12.960000038146973,62.9900016784668,,670
97499,672.5,3468.75,2330.0,19.180118560791016,,,,,,,,,,,,,-3.3279404640197754,9.950302124023438,0.5602431893348694,-0.4044055640697479,0.1931568682193756,-0.07183519750833511,-11.25,26.399999618530273,32.25,211.3495330810547,,,,,,,,0.0,0.0,0.0,,,,,,,,12.979999542236328,62.880001068115234,,673
98031,,,,,2025,12,6,17,3,13,33.07381820678711,-111.97461700439453,135.0,31210246.0,335586.0,18,-1.9153614044189453,9.006986618041992,-0.43095630407333374,-0.07343153655529022,-0.0872664600610733,0.11440420895814896,-13.050000190734863,25.649999618530273,31.950000762939453,211.3974609375,2001,3,0,0,2,20,,0.0,0.0,0.0,,,,,,,,12.970000267028809,62.849998474121094,,674
99481,938.75,3341.25,3140.0,18.71197509765625,,,,,,,,,,,,,-3.6535518169403076,9.75397777557373,0.19632454216480255,0.009045913815498352,0.39589178562164307,0.16601912677288055,-10.050000190734863,25.200000762939453,33.75,211.49330139160156,,,,,,,,0.0,0.0,0.0,,,,,,,,12.930000305175781,62.959999084472656,,672
100014,,,,,,,,,,,,,,,,,-4.491522312164307,9.222464561462402,0.45489832758903503,-0.2101844847202301,-0.21124869585037231,-0.3288455605506897,-9.600000381469727,24.75,35.099998474121094,211.25369262695312,2001,3,0,0,2,20,,0.0,0.0,0.0,,,,,,,,12.920000076293945,63.060001373291016,,669
100545,948.75,3343.75,3170.0,16.839433670043945,,,,,,,,,,,,,-3.4093432426452637,9.830592155456543,-0.028730420395731926,0.08247745037078857,0.3160748779773712,0.2633957266807556,-9.899999618530273,24.299999237060547,35.70000076293945,211.3495330810547,,,,,,,,0.0,0.0,0.0,,,,,,,,12.90999984741211,62.970001220703125,,673
101077,,,,,2025,12,6,17,3,16,33.07381820678711,-111.97461700439453,210.0,31210246.0,335564.0,18,-2.6240451335906982,9.610325813293457,1.0678139925003052,-0.2415791153907776,0.025009291246533394,-0.5464796423912048,-13.5,24.899999618530273,33.75,211.25369262695312,2001,3,0,0,2,20,,0.0,0.0,0.0,,,,,,,,12.960000038146973,62.349998474121094,,670
102428,952.5,3338.75,3170.0,18.71197509765625,,,,,,,,,,,,,-3.6535518169403076,9.040505409240723,-0.16759411990642548,0.02075239084661007,-0.09631238132715225,-0.2937261462211609,-9.149999618530273,24.75,35.099998474121094,211.54122924804688,,,,,,,,0.0,0.0,0.0,,,,,,,,12.9399995803833,62.040000915527344,,676
102960,,,,,,,,,,,,,,,,,-3.4332852363586426,9.102754592895508,-0.38307225704193115,0.23945066332817078,-0.040972672402858734,0.03299098089337349,-8.850000381469727,25.5,31.350000381469727,211.5891571044922,2001,3,0,0,2,20,,0.0,0.0,0.0,,,,,,,,12.949999809265137,61.77000045776367,,670
103491,966.25,3332.5,3210.0,18.71197509765625,,,,,,,,,,,,,-4.065354347229004,8.959102630615234,-0.43095630407333374,-0.16335856914520264,0.12877124547958374,-0.17878982424736023,-9.149999618530273,26.549999237060547,30.600000381469727,211.3974609375,,,,,,,,0.0,0.0,0.0,,,,,,,,12.949999809265137,61.439998626708984,,673
104024,,,,,2025,12,6,17,3,19,33.07381820678711,-111.97461700439453,63.0,31210246.0,335152.0,19,-4.027047157287598,9.150638580322266,-0.7948749661445618,0.04150478169322014,0.05427548289299011,-0.019688164815306664,-7.5,25.200000762939453,31.5,211.49330139160156,2001,3,0,0,2,20,,0.0,0.0,0.0,,,,,,,,12.9399995803833,60.7400016784668,,673
105476,933.75,3322.5,3120.0,19.648263931274414,,,,,,,,,,,,,-3.8546648025512695,9.251194953918457,-0.3447650372982025,0.08567012846469879,0.1037619560956955,0.13302814960479736,-8.100000381469727,25.5,31.049999237060547,211.49330139160156,,,,,,,,0.0,0.0,0.0,,,,,,,,12.960000038146973,60.439998626708984,,672
106008,,,,,,,,,,,,,,,,,-4.261679172515869,9.576807022094727,-0.9145850539207458,-0.13409237563610077,0.0872664600610733,-0.03990844264626503,-7.199999809265137,25.649999618530273,29.399999618530273,211.7808380126953,2001,3,0,0,2,20,,0.0,0.0,0.0,,,,,,,,12.9399995803833,60.150001525878906,,668
106539,732.5,3450.0,2520.0,19.180118560791016,,,,,,,,,,,,,-2.47560453414917,9.160215377807617,-0.8188169598579407,-0.03831210732460022,0.22348728775978088,0.07875265926122665,-8.100000381469727,25.799999237060547,33.150001525878906,211.49330139160156,,,,,,,,0.0,0.0,0.0,,,,,,,,12.949999809265137,59.90999984741211,,672
107072,,,,,2025,12,6,17,3,22,33.07381820678711,-111.97461700439453,20.0,31210246.0,335018.0,19,-4.505887508392334,9.126696586608887,0.33039984107017517,0.07928477972745895,-0.04682590812444687,0.023945065215229988,-9.149999618530273,25.5,34.650001525878906,211.49330139160156,2001,3,0,0,2,20,,0.0,0.0,0.0,,,,,,,,12.930000305175781,59.209999084472656,,667
108423,987.5,3321.25,3280.0,19.648263931274414,,,,,,,,,,,,,-3.8115692138671875,9.208099365234375,0.15801730751991272,0.08247745037078857,-0.0026605629827827215,-0.1372850388288498,-8.25,24.899999618530273,34.79999923706055,211.3974609375,,,,,,,,0.0,0.0,0.0,,,,,,,,12.920000076293945,58.88999938964844,,673
108956,,,,,,,,,,,,,,,,,-4.252102375030518,9.433155059814453,-0.14365209639072418,0.051614921540021896,0.06491773575544357,0.12823913991451263,-9.600000381469727,25.799999237060547,34.349998474121094,211.49330139160156,2001,3,0,0,2,20,,0.0,0.0,0.0,,,,,,,,12.9399995803833,58.61000061035156,,669
109487,927.5,3348.75,3110.0,19.648263931274414,,,,,,,,,,,,,-4.194641590118408,8.547300338745117,-0.05267243832349777,-0.18038617074489594,-0.025541404262185097,-0.09418392926454544,-7.199999809265137,25.649999618530273,34.04999923706055,211.54122924804688,,,,,,,,0.0,0.0,0.0,,,,,,,,12.949999809265137,58.310001373291016,,673
110019,,,,,2025,12,6,17,3,25,33.07381820678711,-111.97461700439453,73.0,31210246.0,334851.0,19,-2.7916390895843506,9.639056205749512,-0.3734954595565796,-0.207523912191391,0.12398222833871841,0.25381770730018616,-10.050000190734863,24.899999618530273,32.70000076293945,211.54122924804688,2001,3,0,0,2,20,,0.0,0.0,0.0,,,,,,,,12.970000267028809,57.61000061035156,,670
111471,948.75,3336.25,3160.0,16.37129020690918,,,,,,,,,,,,,-4.572925090789795,9.30386734008789,0.26336219906806946,0.13302814960479736,-0.28734079003334045,-0.188899964094162,-9.600000381469727,25.5,30.600000381469727,211.49330139160156,,,,,,,,0.0,0.0,0.0,,,,,,,,12.960000038146973,57.34000015258789,,669
112004,,,,,,,,,,,,,,,,,-3.533841609954834,9.27034854888916,-0.6512228846549988,0.06811041384935379,-0.04948647320270538,-0.08088111132383347,-9.600000381469727,25.5,32.099998474121094,211.5891571044922,2001,3,0,0,2,20,,0.0,0.0,0.0,,,,,,,,13.0,57.150001525878906,,667
112535,968.75,3328.75,3230.0,16.839433670043945,,,,,,,,,,,,,-4.041412353515625,9.481039047241211,-0.2059013396501541,0.05001858249306679,0.14420251548290253,0.01915605366230011,-8.699999809265137,24.450000762939453,31.950000762939453,211.73292541503906,,,,,,,,0.0,0.0,0.0,,,,,,,,13.0,56.970001220703125,,671
113067,,,,,2025,12,6,17,3,28,33.073814392089844,-111.97461700439453,42.0,31210246.0,334675.0,19,-3.8498764038085938,9.050082206726074,-1.292868971824646,0.016495490446686745,-0.028201965615153313,0.026605628430843353,-7.949999809265137,26.100000381469727,29.399999618530273,211.7808380126953,2001,3,0,0,2,20,,0.0,0.0,0.0,,,,,,,,13.0,56.4900016784668,,670
114416,937.5,3341.25,3140.0,19.180118560791016,,,,,,,,,,,,,-3.485957622528076,8.71489429473877,-1.5514427423477173,-0.040972672402858734,-0.06278928369283676,0.06438562273979187,-9.300000190734863,24.899999618530273,28.649999618530273,211.73292541503906,,,,,,,,0.0,0.0,0.0,,,,,,,,13.0,56.31999969482422,,670
114949,,,,,,,,,,,,,,,,,-3.8307228088378906,8.528146743774414,-1.1971008777618408,0.0037247880827635527,-0.03990844264626503,-0.04948647320270538,-8.699999809265137,24.899999618530273,27.600000381469727,211.5891571044922,2001,3,0,0,2,20,,0.0,0.0,0.0,,,,,,,,12.949999809265137,56.15999984741211,,669
115480,730.0,3446.25,2520.0,19.648263931274414,,,,,,,,,,,,,-3.7397429943084717,8.571242332458496,-1.4077905416488647,0.042569007724523544,0.1207895576953888,-0.06225717440247536,-8.699999809265137,27.149999618530273,30.149999618530273,211.5891571044922,,,,,,,,0.0,0.0,0.0,,,,,,,,13.0,56.0099983215332,,668
116012,,,,,2025,12,6,17,3,31,33.073814392089844,-111.97461700439453,32.0,31210246.0,334706.0,19,-3.7828385829925537,9.370905876159668,-1.8052281141281128,0.08088111132383347,0.01489915233105421,0.054807595908641815,-7.650000095367432,26.549999237060547,28.5,211.5891571044922,2001,3,0,0,2,20,,0.0,0.0,0.0,,,,,,,,13.0,55.720001220703125,,676
117464,982.5,3325.0,3260.0,19.180118560791016,,,,,,,,,,,,,-3.4811692237854004,9.069235801696777,-1.7046716213226318,0.0037247880827635527,0.02979830466210842,0.07289942353963852,-8.399999618530273,25.049999237060547,27.75,211.3974609375,,,,,,,,0.0,0.0,0.0,,,,,,,,12.979999542236328,55.59000015258789,,672
117997,,,,,,,,,,,,,,,,,-3.4380736351013184,9.131484985351562,-1.9536685943603516,-0.04469745606184006,0.06544984877109528,0.046293795108795166,-9.149999618530273,24.75,27.0,211.68499755859375,2001,3,0,0,2,20,,0.0,0.0,0.0,,,,,,,,12.989999771118164,55.459999084472656,,672
118528,948.75,3340.0,3160.0,17.307579040527344,,,,,,,,,,,,,-3.3662476539611816,9.030928611755371,-1.6711528301239014,-0.042569007724523544,0.009578026831150055,0.011174364015460014,-8.100000381469727,24.75,27.299999237060547,211.49330139160156,,,,,,,,0.0,0.0,0.0,,,,,,,,13.020000457763672,55.380001068115234,,671
119060,,,,,2025,12,6,17,3,34,33.073814392089844,-111.97461700439453,50.0,31210246.0,334642.0,19,-3.1076738834381104,8.868123054504395,-1.5131354331970215,-0.02234872803092003,0.023412954062223434,0.011174364015460014,-10.050000190734863,25.200000762939453,28.950000762939453,211.73292541503906,2001,3,0,0,2,20,,0.0,0.0,0.0,,,,,,,,13.010000228881836,55.25,,670
120412,973.75,3321.25,3240.0,19.648263931274414,,,,,,,,,,,,,-3.4763808250427246,9.318233489990234,-1.8579005002975464,0.01383492723107338,0.03299098089337349,0.08992702513933182,-9.899999618530273,26.25,27.75,211.7808380126953,,,,,,,,0.0,0.0,0.0,,,,,,,,13.029999732971191,55.2599983215332,,675
120945,,,,,,,,,,,,,,,,,-3.045424461364746,9.658209800720215,-1.0103530883789062,-0.1367529332637787,-0.11866110563278198,-0.037247881293296814,-11.25,25.649999618530273,30.149999618530273,211.49330139160156,2001,3,0,0,2,20,,0.0,0.0,0.0,,,,,,,,13.0,55.18000030517578,,673
121476,946.25,3340.0,3160.0,19.180118560791016,,,,,,,,,,,,,-3.3518824577331543,9.284713745117188,-1.0055646896362305,-0.07822055369615555,-0.15324842929840088,-0.19954222440719604,-9.75,25.649999618530273,31.950000762939453,211.73292541503906,,,,,,,,0.0,0.0,0.0,,,,,,,,12.989999771118164,55.11000061035156,,673
122008,,,,,2025,12,6,17,3,37,33.073814392089844,-111.97461700439453,59.0,31210246.0,334756.0,19,-3.5673606395721436,9.107542991638184,-0.5841852426528931,0.018623940646648407,0.04469745606184006,-0.1394134908914566,-6.900000095367432,25.799999237060547,35.70000076293945,212.0204620361328,2001,3,0,0,2,20,,0.0,0.0,0.0,,,,,,,,13.029999732971191,54.869998931884766,,669
123459,942.5,3337.5,3150.0,20.11637306213379,,,,,,,,,,,,,-3.6104562282562256,9.064447402954102,-0.17717093229293823,-0.04363323003053665,0.04363323003053665,-0.021284503862261772,-7.5,25.649999618530273,35.25,211.87669372558594,,,,,,,,0.0,0.0,0.0,,,,,,,,13.0,54.77000045776367,,677
123992,,,,,,,,,,,,,,,,,-3.5194764137268066,9.064447402954102,-0.4644751250743866,0.07130308449268341,0.051082808524370193,-0.031926754862070084,-6.599999904632568,25.5,34.650001525878906,211.73292541503906,2001,3,0,0,2,20,,0.0,0.0,0.0,,,,,,,,13.0,54.65999984741211,,670
124523,775.0,3433.75,2660.0,17.307579040527344,,,,,,,,,,,,,-3.3710360527038574,9.921571731567383,-0.33518823981285095,0.0,-0.23838643729686737,0.11759687960147858,-9.75,26.100000381469727,37.04999923706055,211.87669372558594,,,,,,,,0.0,0.0,0.0,,,,,,,,13.020000457763672,54.619998931884766,,664
125055,,,,,2025,12,6,17,3,40,33.073814392089844,-111.97461700439453,39.0,31210246.0,334735.0,19,-3.7014358043670654,9.050082206726074,-0.26336219906806946,-0.10855096578598022,0.10642251372337341,0.09631238132715225,-9.149999618530273,25.799999237060547,34.650001525878906,211.87669372558594,2001,3,0,0,2,20,,0.0,0.0,0.0,,,,,,,,13.010000228881836,54.47999954223633,,672
126406,981.25,3341.25,3280.0,18.243831634521484,,,,,,,,,,,,,-3.6966474056243896,9.567230224609375,-0.10534487664699554,0.010642251931130886,0.03299098089337349,-0.15963377058506012,-9.300000190734863,25.200000762939453,33.75,211.87669372558594,,,,,,,,0.0,0.0,0.0,,,,,,,,12.970000267028809,54.459999084472656,,672
126939,,,,,,,,,,,,,,,,,-3.691859006881714,9.342175483703613,-0.6224924325942993,-0.09311969578266144,0.10801885277032852,0.12823913991451263,-7.349999904632568,24.75,34.650001525878906,212.06837463378906,2001,3,0,0,2,20,,0.0,0.0,0.0,,,,,,,,13.020000457763672,54.45000076293945,,671
127470,981.25,3325.0,3260.0,17.77568817138672,,,,,,,,,,,,,-3.5721490383148193,9.059659004211426,0.5889736413955688,0.04469745606184006,0.1207895576953888,0.03139464184641838,-9.149999618530273,24.299999237060547,37.20000076293945,211.9246063232422,,,,,,,,0.0,0.0,0.0,,,,,,,,12.989999771118164,54.45000076293945,,668
128002,,,,,2025,12,6,17,3,43,33.073814392089844,-111.97461700439453,42.0,31210246.0,334594.0,19,-3.9217023849487305,9.418789863586426,-0.8044517636299133,-0.3671576976776123,-0.20167066156864166,-0.13622082769870758,-7.349999904632568,25.799999237060547,32.849998474121094,211.7808380126953,2001,3,0,0,2,20,,0.0,0.0,0.0,,,,,,,,13.020000457763672,54.40999984741211,,668
129452,990.0,3316.25,3280.0,20.584518432617188,,,,,,,,,,,,,-4.592078685760498,8.810662269592285,-0.10534487664699554,0.051082808524370193,0.08939491212368011,-0.07236731052398682,-4.800000190734863,24.299999237060547,33.900001525878906,211.73292541503906,,,,,,,,0.0,0.0,0.0,,,,,,,,13.010000228881836,54.41999816894531,,667
129985,,,,,,,,,,,,,,,,,-4.520252704620361,8.729259490966797,-0.14844051003456116,-0.09737660735845566,-0.06225717440247536,-0.038844216614961624,-5.099999904632568,25.049999237060547,35.400001525878906,212.0204620361328,2001,3,0,0,2,20,,0.0,0.0,0.0,,,,,,,,13.010000228881836,54.369998931884766,,668
130516,941.25,3336.25,3140.0,17.77568817138672,,,,,,,,,,,,,-4.180276393890381,8.887276649475098,-0.004788403399288654,0.07449576258659363,0.0691746324300766,0.01383492723107338,-4.349999904632568,24.75,35.099998474121094,212.06837463378906,,,,,,,,0.0,0.0,0.0,,,,,,,,12.989999771118164,54.36000061035156,,672
131049,,,,,2025,12,6,17,3,46,33.07381057739258,-111.97461700439453,308.0,23748466.0,334620.0,20,-1.4460978507995605,9.979032516479492,0.569819986820221,-0.19741377234458923,-0.44537824392318726,0.24743235111236572,-16.950000762939453,23.100000381469727,35.70000076293945,211.7808380126953,2001,3,0,0,2,20,,0.0,0.0,0.0,,,,,,,,13.0,54.349998474121094,,671
132397,967.5,3290.0,3190.0,21.052661895751953,,,,,,,,,,,,,5.272032260894775,19.80483627319336,-7.297526836395264,0.0877985805273056,2.073110580444336,1.1185005903244019,-36.75,8.25,27.600000381469727,211.9246063232422,,,,,,,,0.0,0.0,0.0,,,,,,,,12.970000267028809,54.38999938964844,,675
132930,,,,,,,,,,,,,,,,,11.128249168395996,10.366893768310547,3.1316158771514893,-1.214812994003296,0.6837646961212158,0.9354538917541504,-42.900001525878906,-4.949999809265137,41.25,212.06837463378906,2001,3,0,0,2,20,,0.0,0.0,0.0,,,,,,,,13.039999961853027,54.5099983215332,,670
133461,707.5,3435.0,2430.0,19.648263931274414,,,,,,,,,,,,,9.227252960205078,4.568136692047119,4.63517427444458,-0.9423713684082031,0.11227575689554214,0.05693604424595833,-44.849998474121094,-16.350000381469727,43.20000076293945,211.87669372558594,,,,,,,,0.0,0.0,0.0,,,,,,,,13.130000114440918,54.4900016784668,,669
133994,,,,,2025,12,6,17,3,49,33.07379913330078,-111.97455596923828,2975.0,10759876.0,344615.0,20,14.082694053649902,0.5123591423034668,2.4899697303771973,0.8439306020736694,0.09099125117063522,0.26712051033973694,-41.70000076293945,-34.79999923706055,37.20000076293945,211.5891571044922,2001,3,0,0,2,20,,0.0,0.0,0.0,,,,,,,,13.329999923706055,54.290000915527344,,676
135445,973.75,3298.75,3230.0,18.243831634521484,,,,,,,,,,,,,9.437943458557129,3.1316158771514893,3.6727054119110107,0.4687911868095398,0.019688164815306664,0.08088111132383347,-41.099998474121094,-33.150001525878906,41.54999923706055,212.0204620361328,,,,,,,,0.0,0.0,0.0,,,,,,,,13.350000381469727,54.209999084472656,,668
135977,,,,,,,,,,,,,,,,,10.702081680297852,-0.9672574996948242,-0.14365209639072418,0.03831210732460022,0.19634954631328583,0.02607351541519165,-39.0,-38.849998474121094,42.900001525878906,212.0204620361328,2001,3,0,0,2,20,,0.0,0.0,0.0,,,,,,,,13.420000076293945,54.08000183105469,,670
136508,993.75,3293.75,3280.0,19.180118560791016,,,,,,,,,,,,,16.82645034790039,0.09576806426048279,7.101202011108398,1.0030322074890137,0.44750669598579407,-0.08141322433948517,-35.54999923706055,-42.150001525878906,46.79999923706055,211.9246063232422,,,,,,,,0.0,0.0,0.0,,,,,,,,13.359999656677246,53.93000030517578,,665
137041,,,,,2025,12,6,17,3,52,33.073814392089844,-111.97447204589844,1023.0,6317967.0,346925.0,20,11.228805541992188,-2.0254945755004883,7.182605266571045,0.8279671669006348,0.310753732919693,-0.11866110563278198,-36.0,-22.5,58.650001525878906,212.21214294433594,2001,3,0,0,2,20,,0.0,0.0,0.0,,,,,,,,13.390000343322754,53.66999816894531,,668
138392,1003.75,3288.75,3300.0,20.11637306213379,,,,,,,,,,,,,11.72201156616211,2.801215887069702,-2.7054479122161865,1.1089226007461548,0.3341667056083679,0.07981688529253006,-38.54999923706055,-4.349999904632568,51.29999923706055,212.0204620361328,,,,,,,,0.0,0.0,0.0,,,,,,,,13.34000015258789,53.54999923706055,,669
138925,,,,,,,,,,,,,,,,,4.807557106018066,-1.2114660739898682,-1.8962076902389526,0.11014730483293533,0.4193047285079956,0.16016589105129242,-40.04999923706055,-1.649999976158142,45.45000076293945,211.9246063232422,2001,3,0,0,2,20,,0.0,0.0,0.0,,,,,,,,13.34000015258789,53.43000030517578,,674
139456,967.5,3305.0,3200.0,17.307579040527344,,,,,,,,,,,,,12.828132629394531,-0.004788403399288654,4.534617900848389,0.5938376188278198,0.172404482960701,0.07023885846138,-39.29999923706055,-0.8999999761581421,48.29999923706055,211.87669372558594,,,,,,,,0.0,0.0,0.0,,,,,,,,13.34000015258789,53.33000183105469,,672
139988,,,,,2025,12,6,17,3,55,33.07387161254883,-111.9744644165039,2216.0,2648528.0,361392.0,15,8.868123054504395,-0.090979665517807,-0.2106897532939911,-0.6449204683303833,-0.16442278027534485,0.1745329201221466,-37.349998474121094,7.199999809265137,36.45000076293945,212.06837463378906,2001,3,0,0,2,20,,0.0,0.0,0.0,,,,,,,,13.220000267028809,53.029998779296875,,668
141441,998.75,3290.0,3280.0,18.243831634521484,,,,,,,,,,,,,11.985373497009277,-1.2018892765045166,-0.9050082564353943,-1.15468430519104,0.03777999430894852,-0.23253318667411804,-39.29999923706055,1.350000023841858,46.20000076293945,212.11630249023438,,,,,,,,0.0,0.0,0.0,,,,,,,,13.170000076293945,52.970001220703125,,668
141973,,,,,,,,,,,,,,,,,9.399636268615723,0.5315127968788147,2.892195701599121,-1.0663535594940186,0.061725057661533356,-0.18251462280750275,-36.900001525878906,-9.600000381469727,55.20000076293945,211.9246063232422,2001,3,0,0,2,20,,0.0,0.0,0.0,,,,,,,,13.119999885559082,52.95000076293945,,673
142504,708.75,3425.0,2430.0,19.180118560791016,,,,,,,,,,,,,10.357316970825195,-1.1492167711257935,0.9624691009521484,-0.6135258078575134,0.07023885846138,-0.09524815529584885,-37.20000076293945,-18.75,56.849998474121094,211.9246063232422,,,,,,,,0.0,0.0,0.0,,,,,,,,13.119999885559082,52.869998931884766,,673
143037,,,,,2025,12,6,17,3,58,33.07389831542969,-111.97453308105469,1499.0,33373748.0,379509.0,17,9.050082206726074,1.5897499322891235,-1.0773907899856567,-0.8886280059814453,-0.017027603462338448,-0.13409237563610077,-39.29999923706055,-34.95000076293945,49.04999923706055,212.0204620361328,2001,3,0,0,2,20,,0.0,0.0,0.0,,,,,,,,13.109999656677246,52.7400016784668,,670
144386,945.0,3307.5,3120.0,16.37129020690918,,,,,,,,,,,,,9.974244117736816,-0.24420857429504395,1.1061211824417114,-1.1743725538253784,-0.02075239084661007,-0.07555998861789703,-39.150001525878906,-39.0,37.20000076293945,212.0204620361328,,,,,,,,0.0,0.0,0.0,,,,,,,,13.0600004196167,52.68000030517578,,678
144919,,,,,,,,,,,,,,,,,9.744400978088379,-2.542642116546631,1.867477297782898,-0.5704246759414673,0.20539546012878418,-0.12557856738567352,-39.599998474121094,-38.25,22.950000762939453,212.0204620361328,2001,3,0,0,2,20,,0.0,0.0,0.0,,,,,,,,13.079999923706055,52.65999984741211,,675
145450,990.0,3295.0,3300.0,19.648263931274414,,,,,,,,,,,,,9.873687744140625,1.278503656387329,1.3215993642807007,0.40919455885887146,-0.06598196178674698,-0.07449576258659363,-42.150001525878906,-34.349998474121094,25.5,211.73292541503906,,,,,,,,0.0,0.0,0.0,,,,,,,,13.119999885559082,52.59000015258789,,669
145983,,,,,2025,12,6,17,4,1,33.074031829833984,-111.97441864013672,3299.0,4297704.0,366931.0,14,9.883264541625977,0.2777273952960968,-1.0295066833496094,0.708241879940033,0.1229180097579956,0.027137741446495056,-41.25,-34.20000076293945,40.650001525878906,211.87669372558594,2001,3,0,0,2,20,,0.0,0.0,0.0,,,,,,,,13.069999694824219,52.43000030517578,,673
147432,1001.25,3285.0,3280.0,18.71197509765625,,,,,,,,,,,,,10.165780067443848,0.1388636976480484,-0.35913026332855225,0.5001858472824097,0.00691746361553669,0.04044055566191673,-41.099998474121094,-29.700000762939453,48.150001525878906,212.11630249023438,,,,,,,,0.0,0.0,0.0,,,,,,,,13.079999923706055,52.38999938964844,,675
147965,,,,,,,,,,,,,,,,,9.974244117736816,-0.751779317855835,-1.479616641998291,0.17719349265098572,-0.05374337360262871,0.05746815726161003,-39.599998474121094,-28.5,50.400001525878906,211.9246063232422,2001,3,0,0,2,20,,0.0,0.0,0.0,,,,,,,,13.069999694824219,52.33000183105469,,672
148496,986.25,3291.25,3250.0,17.77568817138672,,,,,,,,,,,,,9.528923034667969,0.19632454216480255,-0.5171475410461426,-0.13462448120117188,0.09844082593917847,-0.10642251372337341,-39.75,-30.299999237060547,52.79999923706055,211.73292541503906,,,,,,,,0.0,0.0,0.0,,,,,,,,13.069999694824219,52.310001373291016,,673
149029,,,,,2025,12,6,17,4,4,33.074039459228516,-111.97441864013672,1651.0,32605714.0,388595.0,15,9.241618156433105,1.3886369466781616,0.37828385829925537,0.4847545623779297,0.12451434880495071,-0.0877985805273056,-35.25,-14.100000381469727,58.650001525878906,212.06837463378906,2001,3,0,0,2,20,,0.0,0.0,0.0,,,,,,,,12.949999809265137,52.220001220703125,,675
150478,993.75,3287.5,3260.0,20.11637306213379,,,,,,,,,,,,,9.519346237182617,-0.3208230137825012,-0.6560112833976746,0.2277441769838333,0.01915605366230011,-0.11280786246061325,-36.0,-7.800000190734863,57.900001525878906,211.7808380126953,,,,,,,,0.0,0.0,0.0,,,,,,,,12.899999618530273,52.209999084472656,,673
151011,,,,,,,,,,,,,,,,,9.232041358947754,0.08619125932455063,0.9002198576927185,0.1755971610546112,0.07875265926122665,-0.07822055369615555,-33.75,-1.649999976158142,57.150001525878906,212.0204620361328,2001,3,0,0,2,20,,0.0,0.0,0.0,,,,,,,,12.880000114440918,52.20000076293945,,674
151542,710.0,3418.75,2430.0,17.307579040527344,,,,,,,,,,,,,9.739612579345703,0.22026655077934265,0.9385270476341248,0.35598331689834595,-0.004256900865584612,-0.12345011532306671,-32.099998474121094,2.25,55.20000076293945,212.0204620361328,,,,,,,,0.0,0.0,0.0,,,,,,,,12.829999923706055,52.18000030517578,,671
152074,,,,,2025,12,6,17,4,7,33.074222564697266,-111.9744644165039,7629.0,1243942.0,412628.0,12,9.409213066101074,1.2880805730819702,0.828393816947937,0.39163485169410706,-0.02234872803092003,0.1388813853263855,-37.650001525878906,8.850000381469727,31.049999237060547,211.9246063232422,2001,3,0,0,2,20,,0.0,0.0,0.0,,,,,,,,12.90999984741211,52.15999984741211,,670
153424,965.0,3303.75,3190.0,17.307579040527344,,,,,,,,,,,,,9.418789863586426,1.699883222579956,-0.8379706144332886,-0.06544984877109528,0.01489915233105421,0.17080813646316528,-38.849998474121094,8.399999618530273,28.049999237060547,212.21214294433594,,,,,,,,0.0,0.0,0.0,,,,,,,,12.970000267028809,52.099998474121094,,675
153957,,,,,,,,,,,,,,,,,9.744400978088379,2.403778553009033,-1.1971008777618408,-0.8971418142318726,0.09737660735845566,0.05800027400255203,-39.150001525878906,4.5,36.150001525878906,212.06837463378906,2001,3,0,0,2,20,,0.0,0.0,0.0,,,,,,,,12.949999809265137,52.04999923706055,,674
154488,983.75,3293.75,3240.0,19.648263931274414,,,,,,,,,,,,,10.687716484069824,0.8667010068893433,-0.5985504388809204,-1.6623196601867676,-0.12451434880495071,0.09897294640541077,-40.04999923706055,-8.25,49.79999923706055,212.06837463378906,,,,,,,,0.0,0.0,0.0,,,,,,,,12.970000267028809,52.0,,674
155020,,,,,2025,12,6,17,4,10,33.074317932128906,-111.97441101074219,1565.0,1705902.0,432918.0,11,9.327810287475586,2.3127987384796143,0.10055647045373917,-2.0693857669830322,-0.08034899830818176,0.03139464184641838,-40.04999923706055,-23.700000762939453,11.850000381469727,212.26007080078125,2001,3,0,0,2,20,,0.0,0.0,0.0,,,,,,,,12.819999694824219,51.720001220703125,,672
156472,988.75,3296.25,3260.0,19.648263931274414,,,,,,,,,,,,,9.806650161743164,2.518700122833252,1.2497732639312744,-1.8618619441986084,-0.1367529332637787,-0.11333998292684555,-40.5,-4.800000190734863,12.149999618530273,212.11630249023438,,,,,,,,0.0,0.0,0.0,,,,,,,,12.6899995803833,51.63999938964844,,670
157004,,,,,,,,,,,,,,,,,9.533711433410645,0.5650315880775452,0.6320692300796509,-1.232372760772705,-0.09684448689222336,-0.13036759197711945,-40.04999923706055,6.300000190734863,26.100000381469727,212.26007080078125,2001,3,0,0,2,20,,0.0,0.0,0.0,,,,,,,,12.640000343322754,51.54999923706055,,678
157535,996.25,3292.5,3280.0,16.37129020690918,,,,,,,,,,,,,9.476250648498535,0.9097966551780701,0.1388636976480484,-0.9897294044494629,-0.13143180310726166,-0.052679143846035004,-38.099998474121094,6.150000095367432,37.95000076293945,212.06837463378906,,,,,,,,0.0,0.0,0.0,,,,,,,,12.649999618530273,51.5099983215332,,675
158068,,,,,2025,12,6,17,4,13,33.07436752319336,-111.97447967529297,3076.0,30600356.0,457005.0,12,10.668562889099121,0.6751648783683777,0.7613561153411865,-0.14526672661304474,-0.16176222264766693,-0.11600054800510406,-38.099998474121094,0.30000001192092896,46.79999923706055,212.11630249023438,2001,3,0,0,2,20,,0.0,0.0,0.0,,,,,,,,12.800000190734863,51.22999954223633,,669
159418,945.0,3306.25,3120.0,18.71197509765625,,,,,,,,,,,,,8.571242332458496,0.7469909191131592,-0.45489832758903503,-0.19794589281082153,-0.02288084104657173,0.04310112074017525,-39.150001525878906,-0.75,46.04999923706055,212.26007080078125,,,,,,,,0.0,0.0,0.0,,,,,,,,12.869999885559082,51.0,,670
159950,,,,,,,,,,,,,,,,,10.467450141906738,-0.6799532771110535,-0.6943184733390808,-0.2942582666873932,-0.028734078630805016,-0.06811041384935379,-37.95000076293945,-1.350000023841858,48.75,212.21214294433594,2001,3,0,0,2,20,,0.0,0.0,0.0,,,,,,,,12.90999984741211,50.68000030517578,,664
160481,707.5,3433.75,2430.0,17.307579040527344,,,,,,,,,,,,,8.56645393371582,-0.7230489253997803,0.17238251864910126,-0.23838643729686737,-0.06491773575544357,0.021284503862261772,-39.29999923706055,-4.050000190734863,49.79999923706055,212.30799865722656,,,,,,,,0.0,0.0,0.0,,,,,,,,12.960000038146973,50.279998779296875,,667
161014,,,,,2025,12,6,17,4,16,33.07441329956055,-111.97460174560547,3126.0,30306982.0,486296.0,14,9.500192642211914,1.6136919260025024,0.07182604819536209,-0.8231781721115112,0.032458867877721786,0.1564411073923111,-38.849998474121094,-23.100000381469727,51.150001525878906,212.21214294433594,2001,3,0,0,2,20,,0.0,0.0,0.0,,,,,,,,13.109999656677246,49.290000915527344,,661
162464,1001.25,3293.75,3300.0,17.307579040527344,,,,,,,,,,,,,9.313444137573242,0.6033388376235962,-0.9002198576927185,-0.8370130658149719,0.04363323003053665,0.1218537837266922,-41.400001525878906,-33.900001525878906,48.150001525878906,212.11630249023438,,,,,,,,0.0,0.0,0.0,,,,,,,,13.130000114440918,48.90999984741211,,659
162996,,,,,,,,,,,,,,,,,9.940725326538086,-0.5554547905921936,-0.009576806798577309,-0.7098382115364075,0.0697067454457283,0.07449576258659363,-37.95000076293945,-43.04999923706055,37.79999923706055,212.21214294433594,2001,3,0,0,2,20,,0.0,0.0,0.0,,,,,,,,13.0600004196167,48.560001373291016,,663
163527,980.0,3297.5,3230.0,20.584518432617188,,,,,,,,,,,,,9.725247383117676,0.45010992884635925,-0.8044517636299133,-0.18357884883880615,0.05533970892429352,0.015431264415383339,-36.150001525878906,-44.400001525878906,33.150001525878906,212.30799865722656,,,,,,,,0.0,0.0,0.0,,,,,,,,13.09000015258789,48.20000076293945,,662
164060,,,,,2025,12,6,17,4,19,33.07436752319336,-111.9747085571289,5077.0,31780830.0,501585.0,13,10.160991668701172,-0.9624691009521484,-0.4213795065879822,0.01489915233105421,0.13515660166740417,-0.08247745037078857,-37.20000076293945,-44.54999923706055,36.29999923706055,212.21214294433594,2001,3,0,0,2,20,,0.0,0.0,0.0,,,,,,,,13.119999885559082,47.400001525878906,,670
165410,983.75,3300.0,3240.0,18.243831634521484,,,,,,,,,,,,,9.93593692779541,-1.259350061416626,0.3256114423274994,0.2458360195159912,0.12877124547958374,-0.11174364387989044,-37.349998474121094,-41.70000076293945,39.75,212.21214294433594,,,,,,,,0.0,0.0,0.0,,,,,,,,13.140000343322754,47.099998474121094,,663
165943,,,,,,,,,,,,,,,,,9.758766174316406,1.5131354331970215,1.6376339197158813,0.7103703022003174,0.13249602913856506,-0.14792729914188385,-38.54999923706055,-36.150001525878906,47.70000076293945,212.26007080078125,2001,3,0,0,2,20,,0.0,0.0,0.0,,,,,,,,13.170000076293945,46.810001373291016,,662
166474,937.5,3312.5,3110.0,19.648263931274414,,,,,,,,,,,,,9.955090522766113,0.7182605266571045,-0.004788403399288654,0.636938750743866,0.046293795108795166,-0.1394134908914566,-38.400001525878906,-24.75,53.70000076293945,212.06837463378906,,,,,,,,0.0,0.0,0.0,,,,,,,,13.170000076293945,46.54999923706055,,657
167006,,,,,2025,12,6,17,4,22,33.074459075927734,-111.97476196289062,3400.0,35851768.0,519888.0,15,9.75397777557373,1.3886369466781616,0.45010992884635925,-0.2751021981239319,-0.09950505197048187,0.04895435646176338,-40.5,-16.799999237060547,53.099998474121094,212.21214294433594,2001,3,0,0,2,20,,0.0,0.0,0.0,,,,,,,,13.399999618530273,45.86000061035156,,653
168458,966.25,3283.75,3170.0,20.584518432617188,,,,,,,,,,,,,9.653421401977539,0.9241618514060974,0.45010992884635925,-0.37035036087036133,-0.09790871292352676,0.09737660735845566,-39.75,-22.950000762939453,50.54999923706055,212.11630249023438,,,,,,,,0.0,0.0,0.0,,,,,,,,13.369999885559082,45.599998474121094,,651
168991,,,,,,,,,,,,,,,,,9.907206535339355,0.8571242094039917,0.181959331035614,-0.2415791153907776,-0.08939491212368011,0.156973198056221,-41.25,-27.899999618530273,48.75,212.21214294433594,2001,3,0,0,2,20,,0.0,0.0,0.0,,,,,,,,13.40999984741211,45.34000015258789,,652
169522,726.25,3422.5,2480.0,20.11637306213379,,,,,,,,,,,,,9.86889934539795,0.9433154463768005,1.4939818382263184,0.1223858892917633,-0.06491773575544357,0.10961519181728363,-40.5,-30.600000381469727,46.5,212.30799865722656,,,,,,,,0.0,0.0,0.0,,,,,,,,13.40999984741211,45.130001068115234,,655
170054,,,,,2025,12,6,17,4,25,33.07449722290039,-111.9747314453125,1162.0,1674931.0,539720.0,15,10.180145263671875,0.7374141216278076,0.0,0.08567012846469879,0.0005321126081980765,0.07768843322992325,-39.75,-30.299999237060547,48.0,212.26007080078125,2001,3,0,0,2,20,,0.0,0.0,0.0,,,,,,,,13.539999961853027,44.540000915527344,,655
171405,967.5,3306.25,3200.0,19.180118560791016,,,,,,,,,,,,,9.99339771270752,-0.4213795065879822,0.1149216815829277,-0.11227575689554214,0.03618365526199341,0.005853238515555859,-39.75,-33.0,49.04999923706055,212.21214294433594,,,,,,,,0.0,0.0,0.0,,,,,,,,13.579999923706055,44.29999923706055,,654
171938,,,,,,,,,,,,,,,,,9.830592155456543,-0.14844051003456116,0.5267243981361389,-0.13515660166740417,0.010642251931130886,-0.04735802114009857,-39.599998474121094,-33.150001525878906,47.400001525878906,212.26007080078125,2001,3,0,0,2,20,,0.0,0.0,0.0,,,,,,,,13.619999885559082,44.060001373291016,,648
172469,996.25,3282.5,3260.0,17.307579040527344,,,,,,,,,,,,,9.864110946655273,0.12928688526153564,0.689530074596405,-0.1399455964565277,0.007449576165527105,-0.013302814215421677,-39.900001525878906,-33.900001525878906,46.79999923706055,212.11630249023438,,,,,,,,0.0,0.0,0.0,,,,,,,,13.649999618530273,43.849998474121094,,645
173002,,,,,2025,12,6,17,4,28,33.07451629638672,-111.97476196289062,2593.0,30856102.0,560382.0,18,9.706093788146973,0.569819986820221,-0.4118026793003082,-1.0482617616653442,0.08034899830818176,-0.030862528830766678,-41.54999923706055,-39.599998474121094,33.45000076293945,212.21214294433594,2001,3,0,0,2,20,,0.0,0.0,0.0,,,,,,,,13.640000343322754,43.20000076293945,,645
174451,983.75,3297.5,3240.0,18.243831634521484,,,,,,,,,,,,,9.514557838439941,-0.043095629662275314,0.13407529890537262,-1.2398223876953125,0.0686425194144249,-0.03777999430894852,-41.70000076293945,-36.29999923706055,21.899999618530273,212.45176696777344,,,,,,,,0.0,0.0,0.0,,,,,,,,13.680000305175781,43.0099983215332,,644
174983,,,,,,,,,,,,,,,,,9.528923034667969,-0.05267243832349777,0.4644751250743866,-1.089234471321106,0.011174364015460014,-0.029266193509101868,-41.099998474121094,-29.700000762939453,13.800000190734863,212.21214294433594,2001,3,0,0,2,20,,0.0,0.0,0.0,,,,,,,,13.760000228881836,42.779998779296875,,643
175515,950.0,3315.0,3140.0,17.77568817138672,,,,,,,,,,,,,9.586383819580078,-0.17238251864910126,0.6129156351089478,-0.7529392838478088,-0.028201965615153313,-0.03671576827764511,-40.5,-17.100000381469727,10.350000381469727,212.45176696777344,,,,,,,,0.0,0.0,0.0,,,,,,,,13.680000305175781,42.56999969482422,,647
176047,,,,,2025,12,6,17,4,31,33.07453918457031,-111.974853515625,2710.0,29963428.0,579632.0,17,9.892841339111328,-0.12928688526153564,0.8475474119186401,0.0521470308303833,-0.05321125686168671,-0.056403931230306625,-39.0,-6.75,8.850000381469727,212.40383911132812,2001,3,0,0,2,20,,0.0,0.0,0.0,,,,,,,,13.510000228881836,42.09000015258789,,644
177397,987.5,3290.0,3250.0,20.11637306213379,,,,,,,,,,,,,9.888052940368652,0.5027823448181152,1.259350061416626,0.3128822147846222,-0.012238589115440845,-0.038844216614961624,-37.5,-8.699999809265137,5.25,212.21214294433594,,,,,,,,0.0,0.0,0.0,,,,,,,,13.460000038146973,41.90999984741211,,644
177930,,,,,,,,,,,,,,,,,9.758766174316406,1.9057846069335938,0.7374141216278076,0.35651543736457825,-0.007981688715517521,-0.027137741446495056,-38.25,-13.649999618530273,3.75,212.547607421875,2001,3,0,0,2,20,,0.0,0.0,0.0,,,,,,,,13.420000076293945,41.75,,643
178461,717.5,3425.0,2460.0,20.11637306213379,,,,,,,,,,,,,9.701305389404297,1.9488801956176758,-0.28730419278144836,-0.14047771692276,-0.035651542246341705,0.013302814215421677,-35.849998474121094,-15.0,3.9000000953674316,212.40383911132812,,,,,,,,0.0,0.0,0.0,,,,,,,,13.470000267028809,41.630001068115234,,646
178993,,,,,2025,12,6,17,4,34,33.07460403442383,-111.97492980957031,4133.0,33421640.0,597991.0,18,9.509769439697266,0.6607996821403503,0.2585737705230713,-1.7304301261901855,-0.16229432821273804,-0.025541404262185097,-35.25,10.949999809265137,34.04999923706055,212.21214294433594,2001,3,0,0,2,20,,0.0,0.0,0.0,,,,,,,,13.479999542236328,41.279998779296875,,642
180445,985.0,3286.25,3240.0,17.307579040527344,,,,,,,,,,,,,10.050858497619629,0.7565677165985107,0.4165911078453064,-1.60751211643219,-0.1750650405883789,-0.07289942353963852,-35.70000076293945,-1.350000023841858,52.349998474121094,212.30799865722656,,,,,,,,0.0,0.0,0.0,,,,,,,,13.600000381469727,41.20000076293945,,647
180977,,,,,,,,,,,,,,,,,9.797073364257812,0.7565677165985107,1.0295066833496094,-1.183950424194336,-0.18091829121112823,-0.15165209770202637,-36.900001525878906,-20.399999618530273,55.79999923706055,212.547607421875,2001,3,0,0,2,20,,0.0,0.0,0.0,,,,,,,,13.619999885559082,41.099998474121094,,643
181509,983.75,3288.75,3240.0,19.648263931274414,,,,,,,,,,,,,10.079588890075684,0.45010992884635925,0.3495534360408783,-0.8237102627754211,-0.09152336418628693,-0.11759687960147858,-40.04999923706055,-28.350000381469727,51.29999923706055,212.30799865722656,,,,,,,,0.0,0.0,0.0,,,,,,,,13.670000076293945,40.9900016784668,,645
182041,,,,,2025,12,6,17,4,37,33.074703216552734,-111.97493743896484,2907.0,283839.0,616384.0,18,9.749189376831055,0.24899697303771973,0.35913026332855225,-0.299579381942749,-0.038844216614961624,-0.023412954062223434,-42.45000076293945,-33.599998474121094,36.45000076293945,212.30799865722656,2001,3,0,0,2,20,,0.0,0.0,0.0,,,,,,,,13.760000228881836,40.72999954223633,,646
183393,1010.0,3297.5,3330.0,17.307579040527344,,,,,,,,,,,,,9.600749015808105,1.0199298858642578,0.7565677165985107,-0.13143180310726166,-0.08247745037078857,0.015963377431035042,-42.0,-34.5,34.04999923706055,212.11630249023438,,,,,,,,0.0,0.0,0.0,,,,,,,,13.8100004196167,40.619998931884766,,642
183925,,,,,,,,,,,,,,,,,9.854534149169922,1.1827356815338135,0.7757213711738586,-0.018091827630996704,-0.04842224344611168,-0.0015963377663865685,-44.25,-35.25,32.25,212.26007080078125,2001,3,0,0,2,20,,0.0,0.0,0.0,,,,,,,,13.859999656677246,40.54999923706055,,638
184456,990.0,3290.0,3250.0,19.180118560791016,,,,,,,,,,,,,9.859322547912598,0.7086837291717529,0.7469909191131592,0.12504646182060242,-0.03671576827764511,0.008513801731169224,-43.650001525878906,-34.79999923706055,32.099998474121094,212.30799865722656,,,,,,,,0.0,0.0,0.0,,,,,,,,13.869999885559082,40.43000030517578,,646
184989,,,,,2025,12,6,17,4,40,33.07473373413086,-111.97490692138672,366.0,3243951.0,634899.0,19,9.99339771270752,1.0534487962722778,0.3208230137825012,0.19794589281082153,0.010642251931130886,0.09045914560556412,-41.70000076293945,-36.599998474121094,33.900001525878906,212.5955352783203,2001,3,0,0,2,20,,0.0,0.0,0.0,,,,,,,,13.970000267028809,40.119998931884766,,647
186438,1005.0,3285.0,3240.0,21.052661895751953,,,,,,,,,,,,,10.213664054870605,1.015141487121582,-0.12449848651885986,-0.09045914560556412,-0.00691746361553669,0.13515660166740417,-39.150001525878906,-39.75,34.349998474121094,212.5955352783203,,,,,,,,0.0,0.0,0.0,,,,,,,,13.960000038146973,40.02000045776367,,645
186970,,,,,,,,,,,,,,,,,10.108319282531738,0.7182605266571045,-0.1628057211637497,-0.555525541305542,0.029266193509101868,0.06704618781805038,-39.75,-42.599998474121094,28.950000762939453,212.30799865722656,2001,3,0,0,2,20,,0.0,0.0,0.0,,,,,,,,13.960000038146973,39.90999984741211,,647
187501,723.75,3421.25,2470.0,18.243831634521484,,,,,,,,,,,,,10.18493366241455,1.0582371950149536,-0.5171475410461426,-1.089234471321106,-0.015431264415383339,0.04522957280278206,-38.400001525878906,-39.75,20.700000762939453,212.547607421875,,,,,,,,0.0,0.0,0.0,,,,,,,,13.970000267028809,39.83000183105469,,643
188034,,,,,2025,12,6,17,4,43,33.07476806640625,-111.97493743896484,2898.0,33052810.0,654399.0,20,9.677363395690918,1.742978811264038,0.6847416758537292,-2.183258056640625,-0.08088111132383347,0.09578026086091995,-36.0,7.5,18.450000762939453,212.5955352783203,2001,3,0,0,2,20,,0.0,0.0,0.0,,,,,,,,13.8100004196167,39.540000915527344,,646
189382,968.75,3291.25,3190.0,17.307579040527344,,,,,,,,,,,,,10.007762908935547,0.5315127968788147,-0.1867477297782898,-2.2667996883392334,-0.19901010394096375,-0.11600054800510406,-35.099998474121094,2.700000047683716,48.599998474121094,212.45176696777344,,,,,,,,0.0,0.0,0.0,,,,,,,,13.890000343322754,39.470001220703125,,642
189915,,,,,,,,,,,,,,,,,9.892841339111328,0.7374141216278076,0.7326257228851318,-2.1098263263702393,-0.16389068961143494,-0.23093685507774353,-37.650001525878906,-23.850000381469727,56.25,212.45176696777344,2001,3,0,0,2,20,,0.0,0.0,0.0,,,,,,,,13.890000343322754,39.400001525878906,,642
190446,1013.75,3275.0,3320.0,19.648263931274414,,,,,,,,,,,,,10.046070098876953,-0.043095629662275314,0.9002198576927185,-1.9012383222579956,0.047890130430459976,-0.14792729914188385,-39.0,-42.29999923706055,39.900001525878906,212.5955352783203,,,,,,,,0.0,0.0,0.0,,,,,,,,13.859999656677246,39.29999923706055,,648
190978,,,,,2025,12,6,17,4,46,33.07484817504883,-111.97496032714844,3398.0,35872732.0,674228.0,19,10.323798179626465,-0.1867477297782898,-0.6129156351089478,-1.0237846374511719,0.08513801544904709,-0.023945065215229988,-39.599998474121094,-10.050000190734863,9.75,212.45176696777344,2001,3,0,0,2,20,,0.0,0.0,0.0,,,,,,,,13.850000381469727,39.16999816894531,,643
192429,1010.0,3293.75,3330.0,20.11637306213379,,,,,,,,,,,,,9.892841339111328,1.2306196689605713,-0.8475474119186401,-0.7752880454063416,0.11121153086423874,-0.010110138915479183,-41.400001525878906,-1.0499999523162842,15.600000381469727,212.45176696777344,,,,,,,,0.0,0.0,0.0,,,,,,,,13.890000343322754,39.08000183105469,,645
192962,,,,,,,,,,,,,,,,,9.615114212036133,1.5083470344543457,-0.11971008777618408,-0.47464442253112793,0.10322984308004379,0.12451434880495071,-41.70000076293945,1.0499999523162842,25.200000762939453,212.21214294433594,2001,3,0,0,2,20,,0.0,0.0,0.0,,,,,,,,13.979999542236328,39.029998779296875,,642
193493,988.75,3277.5,3240.0,17.307579040527344,,,,,,,,,,,,,9.528923034667969,0.7230489253997803,0.3447650372982025,0.02607351541519165,0.056403931230306625,0.11866110563278198,-43.5,0.44999998807907104,30.149999618530273,212.547607421875,,,,,,,,0.0,0.0,0.0,,,,,,,,14.020000457763672,38.95000076293945,,641
194025,,,,,2025,12,6,17,4,49,33.07488250732422,-111.97492980957031,1494.0,8675540.0,693988.0,19,9.21288776397705,0.9959878921508789,1.7908629179000854,1.6644481420516968,0.047890130430459976,0.1037619560956955,-43.20000076293945,-16.950000762939453,15.300000190734863,212.5955352783203,2001,3,0,0,2,20,,0.0,0.0,0.0,,,,,,,,13.9399995803833,38.63999938964844,,641
195476,1008.75,3278.75,3300.0,17.77568817138672,,,,,,,,,,,,,9.99339771270752,1.944091796875,1.7142484188079834,1.8278067111968994,0.08886279910802841,0.15165209770202637,-42.150001525878906,-32.400001525878906,22.950000762939453,212.5955352783203,,,,,,,,0.0,0.0,0.0,,,,,,,,13.979999542236328,38.56999969482422,,642
196008,,,,,,,,,,,,,,,,,9.816226959228516,1.9632453918457031,-0.13407529890537262,1.5872918367385864,0.21390925347805023,0.207523912191391,-42.0,-36.45000076293945,41.099998474121094,212.40383911132812,2001,3,0,0,2,20,,0.0,0.0,0.0,,,,,,,,14.100000381469727,38.5,,646
196539,715.0,3415.0,2440.0,17.307579040527344,,,,,,,,,,,,,9.883264541625977,1.2018892765045166,0.689530074596405,1.3478411436080933,0.2575424909591675,0.172404482960701,-36.45000076293945,-24.899999618530273,55.650001525878906,212.40383911132812,,,,,,,,0.0,0.0,0.0,,,,,,,,14.119999885559082,38.40999984741211,,643
197072,,,,,2025,12,6,17,4,52,33.07487869262695,-111.97488403320312,1625.0,6586291.0,715211.0,21,9.81143856048584,1.6615760326385498,1.3407529592514038,0.7827376127243042,0.10269773006439209,0.16123011708259583,-33.45000076293945,9.75,45.45000076293945,212.45176696777344,2001,3,0,0,2,20,,0.0,0.0,0.0,,,,,,,,14.079999923706055,38.16999816894531,,636
198421,960.0,3293.75,3190.0,19.648263931274414,,,,,,,,,,,,,9.639056205749512,0.9193734526634216,0.7374141216278076,0.44644245505332947,0.11280786246061325,0.12398222833871841,-32.70000076293945,12.149999618530273,37.79999923706055,212.30799865722656,,,,,,,,0.0,0.0,0.0,,,,,,,,14.0600004196167,38.09000015258789,,643
198954,,,,,,,,,,,,,,,,,9.897629737854004,0.6560112833976746,0.9481038451194763,0.3714146018028259,0.06066083535552025,0.21550558507442474,-34.95000076293945,11.699999809265137,31.950000762939453,212.7393035888672,2001,3,0,0,2,20,,0.0,0.0,0.0,,,,,,,,14.010000228881836,38.0099983215332,,642
199485,1007.5,3278.75,3300.0,17.307579040527344,,,,,,,,,,,,,9.773131370544434,0.6512228846549988,0.5650315880775452,0.21763405203819275,0.16282644867897034,0.22242306172847748,-37.5,8.699999809265137,28.950000762939453,212.547607421875,,,,,,,,0.0,0.0,0.0,,,,,,,,14.050000190734863,37.939998626708984,,641
200017,,,,,2025,12,6,17,4,55,33.074928283691406,-111.97486114501953,854.0,2495500.0,736512.0,21,9.84495735168457,-0.11013327538967133,0.4596867263317108,-0.13089969754219055,-0.016495490446686745,0.14047771692276,-43.04999923706055,-1.350000023841858,28.200000762939453,212.547607421875,2001,3,0,0,2,20,,0.0,0.0,0.0,,,,,,,,14.130000114440918,37.81999969482422,,641
201467,973.75,3297.5,3210.0,18.243831634521484,,,,,,,,,,,,,9.50498104095459,0.11971008777618408,0.40701428055763245,0.06332139670848846,-0.01915605366230011,0.031926754862070084,-44.25,-4.349999904632568,26.100000381469727,212.5955352783203,,,,,,,,0.0,0.0,0.0,,,,,,,,14.15999984741211,37.77000045776367,,640
202000,,,,,,,,,,,,,,,,,9.96945571899414,-0.3495534360408783,-0.1149216815829277,0.2937261462211609,-0.04735802114009857,-0.017027603462338448,-43.04999923706055,-5.550000190734863,24.299999237060547,212.5955352783203,2001,3,0,0,2,20,,0.0,0.0,0.0,,,,,,,,14.229999542236328,37.72999954223633,,642
202531,1011.25,3280.0,3320.0,20.11637306213379,,,,,,,,,,,,,9.404424667358398,-0.5650315880775452,0.7230489253997803,0.4868830144405365,-0.051082808524370193,-0.09524815529584885,-44.54999923706055,-7.5,21.299999237060547,212.547607421875,,,,,,,,0.0,0.0,0.0,,,,,,,,14.229999542236328,37.630001068115234,,643
203063,,,,,2025,12,6,17,4,58,33.07490158081055,-111.9748764038086,2121.0,19824072.0,758165.0,20,9.911994934082031,0.7757213711738586,0.7086837291717529,0.8758572936058044,-0.028201965615153313,0.026605628430843353,-42.29999923706055,-19.799999237060547,12.149999618530273,212.64344787597656,2001,3,0,0,2,20,,0.0,0.0,0.0,,,,,,,,13.949999809265137,37.31999969482422,,641
204414,998.75,3282.5,3280.0,19.648263931274414,,,,,,,,,,,,,9.84495735168457,-0.3016694188117981,0.6703764796257019,0.6342782378196716,-0.01915605366230011,-0.02979830466210842,-40.5,-27.600000381469727,11.850000381469727,212.83514404296875,,,,,,,,0.0,0.0,0.0,,,,,,,,14.039999961853027,37.2599983215332,,641
204947,,,,,,,,,,,,,,,,,9.75397777557373,0.9097966551780701,0.6751648783683777,0.5443511605262756,0.07875265926122665,0.009578026831150055,-40.79999923706055,-33.0,16.5,212.64344787597656,2001,3,0,0,2,20,,0.0,0.0,0.0,,,,,,,,14.109999656677246,37.16999816894531,,646
205478,717.5,3413.75,2460.0,20.584518432617188,,,,,,,,,,,,,10.285490036010742,1.0630255937576294,-0.646434485912323,0.1575053185224533,0.04948647320270538,0.04682590812444687,-39.599998474121094,-34.79999923706055,17.850000381469727,212.45176696777344,,,,,,,,0.0,0.0,0.0,,,,,,,,14.149999618530273,37.13999938964844,,647
206010,,,,,2025,12,6,17,5,1,33.07484817504883,-111.97489166259766,1284.0,19540670.0,778645.0,21,9.62947940826416,0.4213795065879822,0.3926490843296051,-0.5108280777931213,0.015963377431035042,0.047890130430459976,-38.400001525878906,-31.950000762939453,7.949999809265137,212.7393035888672,2001,3,0,0,2,20,,0.0,0.0,0.0,,,,,,,,14.170000076293945,36.959999084472656,,642
207462,978.75,3295.0,3230.0,20.11637306213379,,,,,,,,,,,,,9.610325813293457,0.06703764945268631,-0.646434485912323,-0.45921316742897034,0.06651407480239868,-0.003192675532773137,-38.400001525878906,-25.5,6.900000095367432,212.78721618652344,,,,,,,,0.0,0.0,0.0,,,,,,,,14.180000305175781,36.869998931884766,,641
207995,,,,,,,,,,,,,,,,,10.079588890075684,0.871489405632019,-0.17717093229293823,-0.40759822726249695,0.042569007724523544,0.03937632963061333,-39.150001525878906,-19.200000762939453,7.199999809265137,212.40383911132812,2001,3,0,0,2,20,,0.0,0.0,0.0,,,,,,,,14.130000114440918,36.81999969482422,,644
208526,1002.5,3283.75,3290.0,18.243831634521484,,,,,,,,,,,,,9.90241813659668,-0.004788403399288654,0.06703764945268631,-0.11440420895814896,0.10748674720525742,0.054807595908641815,-40.650001525878906,-18.149999618530273,6.900000095367432,212.83514404296875,,,,,,,,0.0,0.0,0.0,,,,,,,,14.0,36.72999954223633,,644
209059,,,,,2025,12,6,17,5,4,33.07482147216797,-111.97489929199219,1095.0,18622070.0,798962.0,21,9.77791976928711,1.2210428714752197,1.2497732639312744,1.0929592847824097,0.08939491212368011,-0.010110138915479183,-39.599998474121094,-32.849998474121094,15.600000381469727,212.45176696777344,2001,3,0,0,2,20,,0.0,0.0,0.0,,,,,,,,14.069999694824219,36.540000915527344,,636
210406,1017.5,3282.5,3340.0,18.243831634521484,,,,,,,,,,,,,9.677363395690918,1.4700398445129395,-0.7086837291717529,1.026977300643921,0.1931568682193756,0.037247881293296814,-40.5,-39.599998474121094,29.399999618530273,212.83514404296875,,,,,,,,0.0,0.0,0.0,,,,,,,,14.119999885559082,36.52000045776367,,639
210938,,,,,,,,,,,,,,,,,9.677363395690918,0.6033388376235962,0.6607996821403503,0.8045542240142822,0.09684448689222336,0.14899152517318726,-38.400001525878906,-38.25,40.20000076293945,212.83514404296875,2001,3,0,0,2,20,,0.0,0.0,0.0,,,,,,,,14.149999618530273,36.439998626708984,,642
211470,1003.75,3267.5,3280.0,20.584518432617188,,,,,,,,,,,,,9.495404243469238,-0.009576806798577309,1.5322890281677246,0.6630122661590576,0.10322984308004379,0.09045914560556412,-39.599998474121094,-33.150001525878906,50.400001525878906,212.78721618652344,,,,,,,,0.0,0.0,0.0,,,,,,,,14.130000114440918,36.369998931884766,,645
212002,,,,,2025,12,6,17,5,7,33.074806213378906,-111.97482299804688,3605.0,11868038.0,818717.0,20,9.289502143859863,1.1204863786697388,0.7805097699165344,0.21071657538414001,-0.060128722339868546,0.09950505197048187,-40.04999923706055,-18.299999237060547,53.099998474121094,212.5955352783203,2001,3,0,0,2,20,,0.0,0.0,0.0,,,,,,,,14.239999771118164,36.15999984741211,,650
213451,1013.75,3267.5,3320.0,21.052661895751953,,,,,,,,,,,,,9.117119789123535,1.0247182846069336,-0.2825157940387726,-0.47624078392982483,-0.019688164815306664,0.02075239084661007,-40.5,-21.75,51.599998474121094,212.7393035888672,,,,,,,,0.0,0.0,0.0,,,,,,,,14.3100004196167,36.04999923706055,,641
213984,,,,,,,,,,,,,,,,,9.998186111450195,0.7422025203704834,-0.6991068720817566,-1.0328304767608643,-0.09152336418628693,-0.04044055566191673,-41.54999923706055,-29.850000381469727,45.45000076293945,212.64344787597656,2001,3,0,0,2,20,,0.0,0.0,0.0,,,,,,,,14.350000381469727,35.970001220703125,,644
214515,730.0,3410.0,2480.0,19.180118560791016,,,,,,,,,,,,,9.8784761428833,1.048660397529602,0.31124621629714966,-1.0753995180130005,-0.1207895576953888,-0.07662421464920044,-40.5,-33.75,35.54999923706055,212.547607421875,,,,,,,,0.0,0.0,0.0,,,,,,,,14.260000228881836,35.86000061035156,,645
215047,,,,,2025,12,6,17,5,10,33.074764251708984,-111.9747314453125,3661.0,14087026.0,836600.0,22,9.873687744140625,0.7996633648872375,0.08619125932455063,-0.2766985297203064,-0.04735802114009857,-0.007981688715517521,-43.04999923706055,-28.350000381469727,16.200000762939453,213.0747528076172,2001,3,0,0,2,20,,0.0,0.0,0.0,,,,,,,,14.34000015258789,35.619998931884766,,638
216398,970.0,3292.5,3200.0,18.243831634521484,,,,,,,,,,,,,9.816226959228516,0.4118026793003082,0.38307225704193115,-0.20167066156864166,-0.025009291246533394,0.06225717440247536,-42.900001525878906,-27.0,14.550000190734863,212.7393035888672,,,,,,,,0.0,0.0,0.0,,,,,,,,14.369999885559082,35.5099983215332,,643
216931,,,,,,,,,,,,,,,,,9.859322547912598,0.4644751250743866,0.8044517636299133,-0.27084532380104065,-0.0686425194144249,0.0867343544960022,-42.0,-25.200000762939453,11.850000381469727,212.7393035888672,2001,3,0,0,2,20,,0.0,0.0,0.0,,,,,,,,14.359999656677246,35.41999816894531,,642
217462,1003.75,3277.5,3290.0,20.584518432617188,,,,,,,,,,,,,9.864110946655273,1.53707754611969,1.3838485479354858,-0.3261849880218506,-0.0862022414803505,0.06225717440247536,-39.900001525878906,-23.549999237060547,10.199999809265137,212.547607421875,,,,,,,,0.0,0.0,0.0,,,,,,,,14.390000343322754,35.34000015258789,,643
217994,,,,,2025,12,6,17,5,13,33.07469177246094,-111.97472381591797,1589.0,18840326.0,854270.0,21,9.945513725280762,1.3311761617660522,-0.16759411990642548,-0.8497837781906128,-0.10056927800178528,0.0345873162150383,-37.5,-7.800000190734863,3.450000047683716,212.9309844970703,2001,3,0,0,2,20,,0.0,0.0,0.0,,,,,,,,14.149999618530273,35.119998931884766,,643
219447,970.0,3297.5,3200.0,20.11637306213379,,,,,,,,,,,,,10.093954086303711,1.1300631761550903,-0.5027823448181152,-1.2839877605438232,-0.09684448689222336,-0.0037247880827635527,-36.45000076293945,4.050000190734863,9.600000381469727,212.9309844970703,,,,,,,,0.0,0.0,0.0,,,,,,,,14.100000381469727,35.04999923706055,,642
219980,,,,,,,,,,,,,,,,,9.854534149169922,1.4939818382263184,0.23942017555236816,-1.6245397329330444,-0.1729365885257721,-0.0521470308303833,-33.45000076293945,12.149999618530273,29.399999618530273,212.83514404296875,2001,3,0,0,2,20,,0.0,0.0,0.0,,,,,,,,14.140000343322754,35.02000045776367,,642
220511,1061.25,3251.25,3460.0,18.71197509765625,,,,,,,,,,,,,9.75397777557373,1.091755986213684,0.2825157940387726,-1.5926129817962646,-0.1218537837266922,-0.11227575689554214,-33.45000076293945,3.1500000953674316,51.0,212.9309844970703,,,,,,,,0.0,0.0,0.0,,,,,,,,14.149999618530273,35.0,,642
221043,,,,,2025,12,6,17,5,16,33.0746955871582,-111.9747085571289,2339.0,7836128.0,871990.0,21,9.797073364257812,0.15801730751991272,0.3016694188117981,-0.9971789717674255,-0.05587182193994522,-0.16814757883548737,-38.54999923706055,-36.900001525878906,47.70000076293945,212.547607421875,2001,3,0,0,2,20,,0.0,0.0,0.0,,,,,,,,14.170000076293945,34.90999984741211,,638
222391,1012.5,3270.0,3320.0,20.11637306213379,,,,,,,,,,,,,10.20887565612793,0.019153613597154617,1.1204863786697388,-0.8082790374755859,-0.04948647320270538,-0.18411095440387726,-39.599998474121094,-38.54999923706055,35.099998474121094,212.64344787597656,,,,,,,,0.0,0.0,0.0,,,,,,,,14.260000228881836,34.86000061035156,,644
222924,,,,,,,,,,,,,,,,,9.821015357971191,-0.4118026793003082,0.3016694188117981,-0.7279300093650818,-0.009045913815498352,-0.1718723624944687,-42.75,-36.150001525878906,27.600000381469727,212.7393035888672,2001,3,0,0,2,20,,0.0,0.0,0.0,,,,,,,,14.279999732971191,34.810001373291016,,642
223455,718.75,3408.75,2440.0,20.584518432617188,,,,,,,,,,,,,9.816226959228516,-0.038307227194309235,0.9433154463768005,-0.7013243436813354,-0.009578026831150055,-0.11653265357017517,-42.45000076293945,-29.25,21.149999618530273,212.83514404296875,,,,,,,,0.0,0.0,0.0,,,,,,,,14.350000381469727,34.790000915527344,,644
223988,,,,,2025,12,6,17,5,19,33.07468795776367,-111.974609375,3464.0,11281188.0,891070.0,21,9.988609313964844,0.14365209639072418,0.8810662031173706,-0.3091574013233185,-0.017027603462338448,-0.08194534480571747,-42.75,-11.399999618530273,14.699999809265137,213.1226806640625,2001,3,0,0,2,20,,0.0,0.0,0.0,,,,,,,,14.140000343322754,34.619998931884766,,647
225437,982.5,3290.0,3240.0,19.180118560791016,,,,,,,,,,,,,9.959878921508789,0.43095630407333374,0.9481038451194763,0.04735802114009857,0.005321125965565443,-0.10589040815830231,-42.150001525878906,-7.650000095367432,14.25,212.64344787597656,,,,,,,,0.0,0.0,0.0,,,,,,,,14.0600004196167,34.540000915527344,,641
225970,,,,,,,,,,,,,,,,,9.983820915222168,0.1388636976480484,0.8379706144332886,0.24104700982570648,-0.021816615015268326,-0.0686425194144249,-40.349998474121094,-8.100000381469727,12.75,212.78721618652344,2001,3,0,0,2,20,,0.0,0.0,0.0,,,,,,,,14.020000457763672,34.5099983215332,,639
226501,1005.0,3273.75,3290.0,20.11637306213379,,,,,,,,,,,,,9.442731857299805,0.17717093229293823,0.7565677165985107,0.19954222440719604,-0.08992702513933182,-0.030330417677760124,-40.349998474121094,-6.900000095367432,10.199999809265137,212.97891235351562,,,,,,,,0.0,0.0,0.0,,,,,,,,13.979999542236328,34.45000076293945,,638
227034,,,,,2025,12,6,17,5,22,33.07463455200195,-111.97457885742188,1845.0,19839998.0,910053.0,22,9.586383819580078,1.3407529592514038,0.7661445140838623,-0.47570863366127014,-0.14313828945159912,0.06119294464588165,-35.849998474121094,-6.449999809265137,3.1500000953674316,212.64344787597656,2001,3,0,0,2,20,,0.0,0.0,0.0,,,,,,,,13.829999923706055,34.33000183105469,,645
228384,956.25,3290.0,3300.0,19.180118560791016,,,,,,,,,,,,,9.375694274902344,1.4460978507995605,0.8092401623725891,-0.9253438115119934,-0.11653265357017517,-0.007449576165527105,-34.349998474121094,2.25,7.650000095367432,213.0747528076172,,,,,,,,0.0,0.0,0.0,,,,,,,,13.829999923706055,34.27000045776367,,638
228917,,,,,,,,,,,,,,,,,9.75397777557373,1.6184803247451782,0.9385270476341248,-1.3765753507614136,-0.13356025516986847,-0.026605628430843353,-31.649999618530273,11.399999618530273,21.0,213.1226806640625,2001,3,0,0,2,20,,0.0,0.0,0.0,,,,,,,,13.859999656677246,34.189998626708984,,645
229448,1025.0,3268.75,3350.0,20.584518432617188,,,,,,,,,,,,,9.557653427124023,1.460463047027588,0.8571242094039917,-1.7219163179397583,-0.13249602913856506,-0.02288084104657173,-34.5,9.0,41.400001525878906,212.83514404296875,,,,,,,,0.0,0.0,0.0,,,,,,,,13.930000305175781,34.150001525878906,,640
229980,,,,,2025,12,6,17,5,25,33.07466125488281,-111.974609375,2043.0,32754486.0,927121.0,20,10.002974510192871,0.5841852426528931,0.05267243832349777,-2.0997161865234375,-0.04842224344611168,-0.14047771692276,-38.099998474121094,-41.70000076293945,29.25,213.1226806640625,2001,3,0,0,2,20,,0.0,0.0,0.0,,,,,,,,14.079999923706055,33.880001068115234,,641
231431,1008.75,3273.75,3300.0,21.052661895751953,,,,,,,,,,,,,9.59596061706543,0.19153612852096558,-0.3064578175544739,-2.0832207202911377,0.0005321126081980765,-0.09631238132715225,-39.0,-26.399999618530273,7.349999904632568,212.9309844970703,,,,,,,,0.0,0.0,0.0,,,,,,,,14.130000114440918,33.810001373291016,,640
231964,,,,,,,,,,,,,,,,,10.007762908935547,0.4213795065879822,0.20111294090747833,-1.8192929029464722,0.0026605629827827215,-0.03618365526199341,-39.75,-2.4000000953674316,12.149999618530273,212.9309844970703,2001,3,0,0,2,20,,0.0,0.0,0.0,,,,,,,,14.0,33.70000076293945,,640
232495,726.25,3407.5,2470.0,19.648263931274414,,,,,,,,,,,,,10.093954086303711,-0.009576806798577309,0.7709329724311829,-1.2281157970428467,0.02447717823088169,0.04363323003053665,-38.099998474121094,5.699999809265137,32.099998474121094,213.1226806640625,,,,,,,,0.0,0.0,0.0,,,,,,,,14.140000343322754,33.61000061035156,,638
233027,,,,,2025,12,6,17,5,28,33.07471466064453,-111.974609375,1608.0,1809651.0,944819.0,20,9.840168952941895,0.14365209639072418,0.3256114423274994,0.32352444529533386,0.02607351541519165,-0.0005321126081980765,-40.04999923706055,-0.8999999761581421,43.20000076293945,212.9309844970703,2001,3,0,0,2,20,,0.0,0.0,0.0,,,,,,,,14.180000305175781,33.380001068115234,,638
234478,982.5,3291.25,3230.0,19.648263931274414,,,,,,,,,,,,,10.11789608001709,0.13407529890537262,0.2106897532939911,0.49220412969589233,0.058532387018203735,0.0047890134155750275,-40.5,0.8999999761581421,39.900001525878906,212.97891235351562,,,,,,,,0.0,0.0,0.0,,,,,,,,14.220000267028809,33.25,,641
235010,,,,,,,,,,,,,,,,,9.907206535339355,0.181959331035614,0.47884035110473633,0.49433258175849915,0.05587182193994522,-0.04150478169322014,-40.04999923706055,5.550000190734863,33.0,213.1706085205078,2001,3,0,0,2,20,,0.0,0.0,0.0,,,,,,,,14.220000267028809,33.18000030517578,,634
235541,1060.0,3263.75,3460.0,19.180118560791016,,,,,,,,,,,,,10.266336441040039,0.1149216815829277,-0.014365210197865963,0.2751021981239319,0.051614921540021896,-0.07183519750833511,-38.099998474121094,4.949999809265137,28.799999237060547,212.78721618652344,,,,,,,,0.0,0.0,0.0,,,,,,,,14.220000267028809,33.06999969482422,,638
236074,,,,,2025,12,6,17,5,31,33.07474136352539,-111.9745864868164,2134.0,4141409.0,963259.0,23,9.964667320251465,0.49799394607543945,0.2777273952960968,0.1734687089920044,0.034055206924676895,-0.031926754862070084,-37.349998474121094,8.100000381469727,22.200000762939453,212.97891235351562,2001,3,0,0,2,20,,0.0,0.0,0.0,,,,,,,,14.239999771118164,32.869998931884766,,641
237423,993.75,3262.5,3260.0,20.11637306213379,,,,,,,,,,,,,9.763554573059082,1.0869675874710083,-0.17238251864910126,0.3123500645160675,0.025009291246533394,0.02766985446214676,-35.54999923706055,6.449999809265137,20.100000381469727,212.9309844970703,,,,,,,,0.0,0.0,0.0,,,,,,,,14.239999771118164,32.75,,634
237955,,,,,,,,,,,,,,,,,9.744400978088379,1.5753847360610962,-0.4118026793003082,0.3283134698867798,0.03671576827764511,0.032458867877721786,-36.75,4.349999904632568,15.449999809265137,213.1226806640625,2001,3,0,0,2,20,,0.0,0.0,0.0,,,,,,,,14.229999542236328,32.66999816894531,,636
238486,1005.0,3265.0,3280.0,20.11637306213379,,,,,,,,,,,,,9.897629737854004,1.1540051698684692,-0.004788403399288654,0.1745329201221466,0.08407378941774368,0.04895435646176338,-37.650001525878906,3.450000047683716,13.050000190734863,213.1226806640625,,,,,,,,0.0,0.0,0.0,,,,,,,,14.220000267028809,32.58000183105469,,636
239019,,,,,2025,12,6,17,5,34,33.07482147216797,-111.97453308105469,2576.0,4252756.0,987161.0,22,9.624691009521484,0.15801730751991272,0.5410895943641663,-0.09844082593917847,0.07023885846138,0.10908307880163193,-40.349998474121094,-1.7999999523162842,16.350000381469727,212.83514404296875,2001,3,0,0,2,20,,0.0,0.0,0.0,,,,,,,,14.199999809265137,32.349998474121094,,636
240470,1003.75,3267.5,3280.0,21.52080535888672,,,,,,,,,,,,,9.461885452270508,0.12449848651885986,0.5650315880775452,-0.013302814215421677,0.04522957280278206,0.07236731052398682,-41.54999923706055,-4.050000190734863,18.0,213.1706085205078,,,,,,,,0.0,0.0,0.0,,,,,,,,14.25,32.2400016784668,,637
241003,,,,,,,,,,,,,,,,,9.188945770263672,0.2825157940387726,0.3926490843296051,0.0686425194144249,0.00691746361553669,0.07555998861789703,-42.75,-4.050000190734863,16.200000762939453,213.26644897460938,2001,3,0,0,2,20,,0.0,0.0,0.0,,,,,,,,14.3100004196167,32.18000030517578,,636
241534,720.0,3407.5,2460.0,20.584518432617188,,,,,,,,,,,,,8.987833023071289,0.4118026793003082,0.4884171485900879,0.054807595908641815,-0.0026605629827827215,0.044165343046188354,-40.79999923706055,-4.800000190734863,18.75,213.0747528076172,,,,,,,,0.0,0.0,0.0,,,,,,,,14.390000343322754,32.099998474121094,,639
242066,,,,,2025,12,6,17,5,37,33.074859619140625,-111.97444152832031,3344.0,9198068.0,1006065.0,22,9.466673851013184,-0.3734954595565796,-0.5363011956214905,-0.536901593208313,0.03777999430894852,-0.0707709789276123,-42.45000076293945,-3.0,19.350000381469727,213.1226806640625,2001,3,0,0,2,20,,0.0,0.0,0.0,,,,,,,,14.420000076293945,31.84000015258789,,634
243418,952.5,3281.25,3120.0,20.11637306213379,,,,,,,,,,,,,10.093954086303711,-0.2059013396501541,-0.9433154463768005,-0.973766028881073,0.02979830466210842,-0.09205547720193863,-41.099998474121094,0.0,26.549999237060547,213.0747528076172,,,,,,,,0.0,0.0,0.0,,,,,,,,14.399999618530273,31.68000030517578,,637
243950,,,,,,,,,,,,,,,,,10.055646896362305,0.13407529890537262,-0.6943184733390808,-1.4569242000579834,0.07236731052398682,-0.09418392926454544,-40.349998474121094,-0.75,41.25,213.0747528076172,2001,3,0,0,2,20,,0.0,0.0,0.0,,,,,,,,14.40999984741211,31.549999237060547,,638
244482,988.75,3275.0,3240.0,17.77568817138672,,,,,,,,,,,,,10.448296546936035,0.608127236366272,-0.9672574996948242,-1.746925711631775,0.07130308449268341,0.02075239084661007,-39.0,-15.149999618530273,52.349998474121094,213.1706085205078,,,,,,,,0.0,0.0,0.0,,,,,,,,14.460000038146973,31.420000076293945,,638
245014,,,,,2025,12,6,17,5,40,33.07481002807617,-111.97437286376953,1304.0,11224434.0,1021290.0,21,9.955090522766113,0.8571242094039917,-0.5171475410461426,-1.4526673555374146,-0.1559089869260788,-0.0015963377663865685,-38.099998474121094,-35.099998474121094,10.5,213.0747528076172,2001,3,0,0,2,20,,0.0,0.0,0.0,,,,,,,,14.420000076293945,31.149999618530273,,636
246463,978.75,3281.25,3200.0,21.052661895751953,,,,,,,,,,,,,9.744400978088379,1.1827356815338135,-0.21547815203666687,-1.364336609840393,-0.10535828769207001,-0.05321125686168671,-36.0,-15.899999618530273,2.25,212.97891235351562,,,,,,,,0.0,0.0,0.0,,,,,,,,14.380000114440918,31.040000915527344,,638
246996,,,,,,,,,,,,,,,,,9.701305389404297,1.0821791887283325,-0.1388636976480484,-1.179693579673767,-0.07289942353963852,0.001064225216396153,-34.95000076293945,0.8999999761581421,7.800000190734863,213.1226806640625,2001,3,0,0,2,20,,0.0,0.0,0.0,,,,,,,,14.1899995803833,30.860000610351562,,636
247527,1006.25,3266.25,3290.0,19.648263931274414,,,,,,,,,,,,,9.744400978088379,1.1300631761550903,0.1867477297782898,-0.8540406823158264,-0.09045914560556412,0.021816615015268326,-35.25,10.199999809265137,20.549999237060547,213.1226806640625,,,,,,,,0.0,0.0,0.0,,,,,,,,14.170000076293945,30.780000686645508,,637
248059,,,,,2025,12,6,17,5,43,33.07486343383789,-111.97435760498047,2170.0,1031317.0,1040225.0,21,10.24239444732666,0.8236053586006165,0.569819986820221,0.533708930015564,-0.042569007724523544,0.17878982424736023,-37.20000076293945,7.050000190734863,24.299999237060547,213.0747528076172,2001,3,0,0,2,20,,0.0,0.0,0.0,,,,,,,,14.229999542236328,30.459999084472656,,643
249409,1023.75,3260.0,3340.0,19.180118560791016,,,,,,,,,,,,,10.256759643554688,0.8140285611152649,-0.14844051003456116,0.85829758644104,0.13143180310726166,0.18357884883880615,-40.349998474121094,-0.75,15.300000190734863,212.83514404296875,,,,,,,,0.0,0.0,0.0,,,,,,,,14.350000381469727,30.389999389648438,,633
249942,,,,,,,,,,,,,,,,,9.931148529052734,0.5937620401382446,-0.004788403399288654,0.9296006560325623,0.15431265532970428,0.15058785676956177,-42.150001525878906,-13.050000190734863,11.699999809265137,213.26644897460938,2001,3,0,0,2,20,,0.0,0.0,0.0,,,,,,,,14.279999732971191,30.219999313354492,,639
250473,765.0,3410.0,2590.0,21.052661895751953,,,,,,,,,,,,,9.931148529052734,0.004788403399288654,0.9145850539207458,1.0509223937988281,0.2277441769838333,0.017559714615345,-42.150001525878906,-21.600000381469727,14.550000190734863,213.26644897460938,,,,,,,,0.0,0.0,0.0,,,,,,,,14.170000076293945,30.110000610351562,,639
251005,,,,,2025,12,6,17,5,46,33.07489013671875,-111.97433471679688,1829.0,8154119.0,1060345.0,22,9.53849983215332,1.3646949529647827,0.33518823981285095,0.418240487575531,-0.05800027400255203,0.15005575120449066,-42.900001525878906,-31.649999618530273,31.350000381469727,213.26644897460938,2001,3,0,0,2,20,,0.0,0.0,0.0,,,,,,,,14.460000038146973,29.770000457763672,,636
252457,990.0,3280.0,3190.0,21.52080535888672,,,,,,,,,,,,,9.423578262329102,1.115697979927063,0.9816226959228516,0.18357884883880615,-0.04203689470887184,0.10322984308004379,-42.0,-32.54999923706055,34.79999923706055,212.97891235351562,,,,,,,,0.0,0.0,0.0,,,,,,,,14.550000190734863,29.65999984741211,,637
252990,,,,,,,,,,,,,,,,,9.476250648498535,1.0534487962722778,0.8427590131759644,-0.06544984877109528,0.03139464184641838,0.09897294640541077,-42.29999923706055,-36.150001525878906,32.70000076293945,213.1706085205078,2001,3,0,0,2,20,,0.0,0.0,0.0,,,,,,,,14.59000015258789,29.510000228881836,,640
253521,981.25,3286.25,3230.0,21.052661895751953,,,,,,,,,,,,,9.533711433410645,0.4118026793003082,0.44532153010368347,-0.15324842929840088,-0.017027603462338448,0.06332139670848846,-41.54999923706055,-37.20000076293945,30.450000762939453,213.3143768310547,,,,,,,,0.0,0.0,0.0,,,,,,,,14.619999885559082,29.3799991607666,,636
254053,,,,,2025,12,6,17,5,49,33.074859619140625,-111.97427368164062,2679.0,12909936.0,1080730.0,22,9.567230224609375,0.37828385829925537,0.17717093229293823,0.45868104696273804,0.010110138915479183,0.004256900865584612,-40.5,-41.099998474121094,33.0,213.1706085205078,2001,3,0,0,2,20,,0.0,0.0,0.0,,,,,,,,14.649999618530273,29.020000457763672,,635
255403,961.25,3282.5,3160.0,18.243831634521484,,,,,,,,,,,,,9.677363395690918,0.1388636976480484,0.20111294090747833,0.640131413936615,0.029266193509101868,0.037247881293296814,-38.400001525878906,-39.29999923706055,38.70000076293945,213.26644897460938,,,,,,,,0.0,0.0,0.0,,,,,,,,14.649999618530273,28.899999618530273,,636
255935,,,,,,,,,,,,,,,,,9.615114212036133,0.6272808313369751,0.16759411990642548,0.6252322793006897,0.0,0.012238589115440845,-38.400001525878906,-35.849998474121094,47.400001525878906,213.26644897460938,2001,3,0,0,2,20,,0.0,0.0,0.0,,,,,,,,14.630000114440918,28.770000457763672,,638
256466,998.75,3263.75,3260.0,20.11637306213379,,,,,,,,,,,,,9.801861763000488,0.5650315880775452,0.7852981686592102,0.43686443567276,-0.029266193509101868,0.0,-37.349998474121094,-32.400001525878906,51.45000076293945,212.9309844970703,,,,,,,,0.0,0.0,0.0,,,,,,,,14.649999618530273,28.649999618530273,,638
256999,,,,,2025,12,6,17,5,52,33.07478332519531,-111.9742202758789,1060.0,13684354.0,1095158.0,22,10.280701637268066,0.5315127968788147,-0.49320554733276367,-0.3134143054485321,-0.013302814215421677,-0.020220277830958366,-40.04999923706055,-29.850000381469727,48.75,213.1226806640625,2001,3,0,0,2,20,,0.0,0.0,0.0,,,,,,,,14.6899995803833,28.399999618530273,,641
258449,1021.25,3265.0,3340.0,21.052661895751953,,,,,,,,,,,,,9.892841339111328,0.9050082564353943,-0.8762778043746948,-0.602883517742157,0.04842224344611168,-0.003192675532773137,-39.599998474121094,-33.150001525878906,47.099998474121094,213.1706085205078,,,,,,,,0.0,0.0,0.0,,,,,,,,14.720000267028809,28.25,,638
258982,,,,,,,,,,,,,,,,,9.892841339111328,0.933738648891449,-0.8667010068893433,-0.71781986951828,0.06811041384935379,0.008513801731169224,-38.400001525878906,-38.25,41.54999923706055,213.3143768310547,2001,3,0,0,2,20,,0.0,0.0,0.0,,,,,,,,14.649999618530273,28.139999389648438,,631
259513,780.0,3398.75,2480.0,18.243831634521484,,,,,,,,,,,,,9.950302124023438,0.2777273952960968,-1.158793568611145,-0.6970674991607666,0.07822055369615555,-0.02075239084661007,-37.5,-41.849998474121094,34.04999923706055,213.3143768310547,,,,,,,,0.0,0.0,0.0,,,,,,,,14.680000305175781,28.020000457763672,,637
260045,,,,,2025,12,6,17,5,55,33.07480239868164,-111.97418212890625,2351.0,4083868.0,1113733.0,22,10.041281700134277,0.15322890877723694,-0.14365209639072418,-0.11812899261713028,0.10163349658250809,0.051082808524370193,-36.75,-40.349998474121094,17.700000762939453,213.26644897460938,2001,3,0,0,2,20,,0.0,0.0,0.0,,,,,,,,14.789999961853027,27.770000457763672,,635
261394,966.25,3283.75,3170.0,19.648263931274414,,,,,,,,,,,,,9.605537414550781,-1.1444283723831177,0.14844051003456116,-0.011174364015460014,0.0047890134155750275,-0.0707709789276123,-35.70000076293945,-41.099998474121094,16.200000762939453,213.36228942871094,,,,,,,,0.0,0.0,0.0,,,,,,,,14.779999732971191,27.690000534057617,,632
261927,,,,,,,,,,,,,,,,,9.983820915222168,-0.11971008777618408,0.5650315880775452,0.0867343544960022,0.034055206924676895,-0.09045914560556412,-36.900001525878906,-41.25,19.350000381469727,213.1706085205078,2001,3,0,0,2,20,,0.0,0.0,0.0,,,,,,,,14.84000015258789,27.610000610351562,,635
262458,1023.75,3267.5,3340.0,20.584518432617188,,,,,,,,,,,,,9.825803756713867,-0.26815059781074524,0.26815059781074524,-0.14313828945159912,0.06757830083370209,-0.026605628430843353,-39.0,-40.349998474121094,18.450000762939453,213.45814514160156,,,,,,,,0.0,0.0,0.0,,,,,,,,14.850000381469727,27.510000228881836,,637
262990,,,,,2025,12,6,17,5,58,33.07487106323242,-111.97410583496094,4156.0,4306774.0,1132218.0,22,9.974244117736816,0.24899697303771973,0.090979665517807,-0.3655613362789154,0.02979830466210842,-0.10269773006439209,-42.0,-32.25,17.25,213.3143768310547,2001,3,0,0,2,20,,0.0,0.0,0.0,,,,,,,,14.90999984741211,27.100000381469727,,631
264442,978.75,3280.0,3210.0,21.052661895751953,,,,,,,,,,,,,10.228029251098633,0.43095630407333374,0.1388636976480484,-0.4906077980995178,0.027137741446495056,-0.05374337360262871,-42.900001525878906,-26.549999237060547,14.25,213.36228942871094,,,,,,,,0.0,0.0,0.0,,,,,,,,14.979999542236328,26.899999618530273,,630
264974,,,,,,,,,,,,,,,,,9.77791976928711,0.646434485912323,0.3208230137825012,-0.7316548228263855,-0.05001858249306679,-0.07183519750833511,-42.45000076293945,-21.149999618530273,13.050000190734863,213.3143768310547,2001,3,0,0,2,20,,0.0,0.0,0.0,,,,,,,,14.90999984741211,26.690000534057617,,628
265505,1056.25,3241.25,3420.0,21.52080535888672,,,,,,,,,,,,,10.050858497619629,-0.1867477297782898,0.5841852426528931,-0.995582640171051,-0.031926754862070084,-0.10216561704874039,-41.25,-12.449999809265137,12.600000381469727,213.36228942871094,,,,,,,,0.0,0.0,0.0,,,,,,,,14.770000457763672,26.440000534057617,,634
266038,,,,,2025,12,6,17,6,1,33.07492446899414,-111.97402954101562,1701.0,5680932.0,1150711.0,22,9.792284965515137,0.49799394607543945,-0.4357447028160095,-1.3930708169937134,0.06811041384935379,-0.04203689470887184,-40.04999923706055,0.8999999761581421,39.900001525878906,213.60191345214844,2001,3,0,0,2,20,,0.0,0.0,0.0,,,,,,,,14.880000114440918,25.969999313354492,,635
267387,1012.5,3267.5,3300.0,21.052661895751953,,,,,,,,,,,,,9.528923034667969,-0.11013327538967133,0.42616790533065796,-1.0918949842453003,0.017559714615345,-0.015431264415383339,-41.25,-9.449999809265137,50.25,213.36228942871094,,,,,,,,0.0,0.0,0.0,,,,,,,,14.920000076293945,25.790000915527344,,630
267920,,,,,,,,,,,,,,,,,9.787496566772461,-0.3734954595565796,0.4644751250743866,-0.5800027251243591,-0.017027603462338448,-0.03671576827764511,-39.75,-19.799999237060547,52.04999923706055,213.64984130859375,2001,3,0,0,2,20,,0.0,0.0,0.0,,,,,,,,14.899999618530273,25.56999969482422,,633
268451,726.25,3402.5,2470.0,21.052661895751953,,,,,,,,,,,,,10.055646896362305,-0.727837324142456,0.038307227194309235,-0.13409237563610077,0.032458867877721786,-0.04735802114009857,-40.349998474121094,-23.100000381469727,52.95000076293945,213.36228942871094,,,,,,,,0.0,0.0,0.0,,,,,,,,14.949999809265137,25.329999923706055,,629
268984,,,,,2025,12,6,17,6,4,33.07489776611328,-111.9740219116211,626.0,14972258.0,1167875.0,22,9.888052940368652,-0.8044517636299133,-0.1149216815829277,0.1761292666196823,0.04682590812444687,-0.17825771868228912,-39.900001525878906,-13.050000190734863,54.45000076293945,213.5060577392578,2001,3,0,0,2,20,,0.0,0.0,0.0,,,,,,,,15.039999961853027,24.8799991607666,,627
270434,975.0,3282.5,3200.0,20.11637306213379,,,,,,,,,,,,,10.06043529510498,0.5602431893348694,-0.6416460275650024,-0.2937261462211609,0.0047890134155750275,-0.1037619560956955,-38.099998474121094,-9.600000381469727,53.70000076293945,213.64984130859375,,,,,,,,0.0,0.0,0.0,,,,,,,,15.069999694824219,24.770000457763672,,634
270967,,,,,,,,,,,,,,,,,9.610325813293457,2.0829553604125977,0.14365209639072418,-0.6837646961212158,0.042569007724523544,-0.003192675532773137,-36.45000076293945,-15.149999618530273,57.900001525878906,213.60191345214844,2001,3,0,0,2,20,,0.0,0.0,0.0,,,,,,,,15.079999923706055,24.65999984741211,,631
271498,985.0,3278.75,3230.0,20.11637306213379,,,,,,,,,,,,,9.84495735168457,1.3982137441635132,1.6759412288665771,-0.39057064056396484,0.04948647320270538,-0.02234872803092003,-36.900001525878906,-22.350000381469727,57.0,213.45814514160156,,,,,,,,0.0,0.0,0.0,,,,,,,,15.100000381469727,24.639999389648438,,628
272030,,,,,2025,12,6,17,6,7,33.07489013671875,-111.97399139404297,1893.0,7923489.0,1186277.0,21,10.055646896362305,0.9481038451194763,0.06224924325942993,1.1818220615386963,-0.0026605629827827215,0.10003716498613358,-38.25,-8.699999809265137,54.900001525878906,213.45814514160156,2001,3,0,0,2,20,,0.0,0.0,0.0,,,,,,,,15.119999885559082,24.709999084472656,,629
273382,977.5,3277.5,3210.0,20.584518432617188,,,,,,,,,,,,,9.8784761428833,0.3687070608139038,0.24899697303771973,1.0030322074890137,0.06811041384935379,0.16921178996562958,-38.849998474121094,1.5,46.04999923706055,213.45814514160156,,,,,,,,0.0,0.0,0.0,,,,,,,,15.140000343322754,24.729999542236328,,629
273915,,,,,,,,,,,,,,,,,9.849745750427246,-0.033518824726343155,0.7852981686592102,0.8572334051132202,0.18251462280750275,0.14792729914188385,-38.400001525878906,4.5,36.150001525878906,213.64984130859375,2001,3,0,0,2,20,,0.0,0.0,0.0,,,,,,,,15.119999885559082,24.739999771118164,,631
274446,1025.0,3258.75,3340.0,19.180118560791016,,,,,,,,,,,,,9.854534149169922,0.08619125932455063,0.8331822156906128,0.8625545501708984,0.16016589105129242,0.044165343046188354,-38.400001525878906,5.699999809265137,26.25,213.69775390625,,,,,,,,0.0,0.0,0.0,,,,,,,,15.109999656677246,24.760000228881836,,633
274978,,,,,2025,12,6,17,6,10,33.07489776611328,-111.97393798828125,2100.0,6274320.0,1206665.0,23,9.773131370544434,0.2585737705230713,-0.023942016065120697,0.6395993232727051,0.015963377431035042,0.04310112074017525,-39.900001525878906,-10.800000190734863,8.699999809265137,213.26644897460938,2001,3,0,0,2,20,,0.0,0.0,0.0,,,,,,,,14.890000343322754,24.670000076293945,,630
276429,1012.5,3256.25,3320.0,19.180118560791016,,,,,,,,,,,,,9.586383819580078,0.4836287498474121,0.9385270476341248,0.6161863803863525,-0.04150478169322014,0.001064225216396153,-39.599998474121094,-18.149999618530273,6.900000095367432,213.79360961914062,,,,,,,,0.0,0.0,0.0,,,,,,,,14.84000015258789,24.610000610351562,,627
276961,,,,,,,,,,,,,,,,,9.96945571899414,0.4357447028160095,0.751779317855835,0.9471604228019714,-0.012238589115440845,0.0521470308303833,-39.0,-29.100000381469727,8.100000381469727,213.60191345214844,2001,3,0,0,2,20,,0.0,0.0,0.0,,,,,,,,14.859999656677246,24.579999923706055,,634
277492,791.25,3383.75,2680.0,18.71197509765625,,,,,,,,,,,,,9.672574996948242,-0.5123591423034668,0.35913026332855225,1.2627031803131104,0.04363323003053665,0.0,-37.650001525878906,-39.75,20.700000762939453,213.60191345214844,,,,,,,,0.0,0.0,0.0,,,,,,,,15.0,24.549999237060547,,632
278025,,,,,2025,12,6,17,6,13,33.07491683959961,-111.97389221191406,2020.0,4492237.0,1227269.0,20,9.346963882446289,-0.35434186458587646,0.038307227194309235,1.9209264516830444,0.10110139101743698,0.02607351541519165,-37.20000076293945,-6.300000190734863,54.150001525878906,213.5060577392578,2001,3,0,0,2,20,,0.0,0.0,0.0,,,,,,,,15.020000457763672,24.399999618530273,,629
279476,1020.0,3251.25,3330.0,21.52080535888672,,,,,,,,,,,,,9.557653427124023,0.17717093229293823,-0.019153613597154617,1.6777509450912476,0.15005575120449066,0.06066083535552025,-38.400001525878906,8.850000381469727,35.400001525878906,213.69775390625,,,,,,,,0.0,0.0,0.0,,,,,,,,15.020000457763672,24.31999969482422,,629
280008,,,,,,,,,,,,,,,,,9.600749015808105,0.4118026793003082,-0.4644751250743866,1.1552164554595947,0.11919321864843369,0.04522957280278206,-38.099998474121094,4.199999809265137,16.049999237060547,213.69775390625,2001,3,0,0,2,20,,0.0,0.0,0.0,,,,,,,,15.100000381469727,24.290000915527344,,632
280539,995.0,3277.5,3260.0,19.180118560791016,,,,,,,,,,,,,9.078812599182129,-0.2059013396501541,0.047884032130241394,0.5933055281639099,0.08833068609237671,0.02075239084661007,-38.400001525878906,-3.450000047683716,9.449999809265137,213.64984130859375,,,,,,,,0.0,0.0,0.0,,,,,,,,14.949999809265137,24.209999084472656,,631
281072,,,,,2025,12,6,17,6,16,33.074974060058594,-111.97384643554688,3241.0,2578983.0,1245931.0,22,8.719682693481445,0.5554547905921936,-0.5171475410461426,-0.3176712095737457,-0.030862528830766678,-0.0345873162150383,-38.849998474121094,-4.949999809265137,10.5,213.60191345214844,2001,3,0,0,2,20,,0.0,0.0,0.0,,,,,,,,14.75,23.84000015258789,,629
282421,991.25,3283.75,3250.0,19.180118560791016,,,,,,,,,,,,,9.150638580322266,1.987187385559082,0.7709329724311829,-0.4549562633037567,-0.11812899261713028,0.001064225216396153,-39.75,-0.8999999761581421,12.899999618530273,213.5060577392578,,,,,,,,0.0,0.0,0.0,,,,,,,,14.760000228881836,23.719999313354492,,631
282953,,,,,,,,,,,,,,,,,9.366117477416992,2.212242364883423,1.647210717201233,-0.38791006803512573,-0.10695462673902512,0.02234872803092003,-37.5,3.1500000953674316,12.149999618530273,213.64984130859375,2001,3,0,0,2,20,,0.0,0.0,0.0,,,,,,,,14.710000038146973,23.559999465942383,,633
